timestamp,accX,accY,accZ
604273,407,-109,-17156
604277,485,250,-15792
604281,741,404,-18227
604285,243,9,-17637
604289,-87,327,-15321
604293,-131,9,-17801
604297,220,-135,-16012
604301,268,269,-17061
604305,60,-500,-15952
604309,100,52,-17175
604313,40,-61,-16138
604317,-99,334,-16701
604321,475,-185,-16740
604325,280,-25,-17703
604329,541,193,-14923
604333,320,-302,-17076
604337,147,251,-15899
604341,990,256,-16663
604345,291,928,-16391
604349,-4,460,-15729
604353,447,894,-17015
604357,345,136,-16033
604361,245,263,-16755
604365,850,302,-16959
604369,-33,-143,-16619
604373,46,-39,-17208
604377,389,-255,-16030
604381,333,228,-17880
604385,147,-99,-15310
604389,-82,136,-17587
604393,201,-293,-15451
604397,536,-16,-17687
604401,637,-225,-16597
604405,127,397,-17016
604409,333,-182,-16459
604413,562,299,-16874
604417,753,562,-16581
604421,168,-25,-16092
604425,-267,432,-16800
604429,268,426,-15527
604433,853,-344,-17719
604437,346,206,-16325
604441,400,-37,-15475
604445,-16,20,-17003
604449,113,-269,-15994
604453,693,-25,-16516
604457,349,-539,-17955
604462,-43,538,-15751
604466,377,-274,-15865
604470,102,-10,-16961
604474,448,-61,-15850
604478,309,-32,-15032
604482,-65,654,-18265
604486,344,246,-14915
604490,584,342,-15809
604494,80,-66,-16807
604498,155,171,-16028
604502,-116,173,-15711
604506,432,59,-16816
604510,606,-519,-15922
604514,265,141,-16136
604518,301,-139,-16922
604522,470,-283,-16814
604526,683,261,-15768
604530,462,-304,-17226
604534,460,79,-16116
604538,307,115,-16298
604542,429,727,-16483
604546,477,172,-15447
604550,-94,263,-16437
604554,82,134,-16829
604558,244,311,-15906
604562,363,284,-16968
604566,56,19,-16583
604570,112,367,-16083
604574,443,-203,-16795
604578,336,-207,-16769
604582,330,-158,-15420
604586,-131,109,-17230
604590,452,6,-16517
604594,322,-137,-16279
604598,727,200,-17138
604602,339,-57,-16112
604606,160,322,-16697
604610,1065,67,-17048
604614,821,-134,-16145
604618,788,454,-16407
604622,80,183,-16621
604626,318,233,-15910
604630,761,101,-16563
604634,297,-57,-16159
604638,315,16,-16316
604642,559,265,-15481
604646,335,316,-16642
604650,373,-90,-15121
604654,150,-240,-17097
604658,353,-173,-16532
604662,37,-20,-16216
604666,247,267,-16767
604670,281,363,-16762
604674,315,-148,-16604
604679,837,312,-17194
604683,-241,464,-14762
604687,568,490,-16878
604691,96,122,-15964
604695,457,-137,-15439
604699,357,191,-16824
604703,311,-191,-15591
604707,311,-43,-15358
604711,324,-46,-17435
604715,442,-187,-15213
604719,410,152,-16510
604723,-38,57,-16126
604727,522,-155,-16411
604731,666,181,-17141
604735,430,-20,-15807
604739,103,164,-16562
604743,179,250,-16486
604747,318,161,-16156
604751,363,441,-16596
604755,523,111,-16361
604759,278,141,-15899
604763,93,156,-15475
604767,474,114,-16678
604771,164,-86,-17224
604775,190,306,-15953
604779,313,218,-16703
604783,-2,-300,-16898
604787,158,-1,-15684
604791,1039,-119,-17065
604795,-53,79,-16861
604799,107,-156,-15330
604803,470,-118,-17724
604807,744,-30,-15486
604811,334,182,-16813
604815,108,-217,-16573
604820,-30,204,-16193
604824,590,-53,-17308
604828,514,513,-16909
604832,6,209,-16494
604835,114,227,-16461
604839,83,78,-15441
604843,207,146,-18264
604847,114,142,-15588
604851,-163,183,-17663
604855,549,-56,-16043
604859,309,250,-16177
604863,401,58,-17095
604867,715,-45,-16050
604871,478,75,-17142
604875,263,-205,-16252
604879,520,550,-16616
604883,424,293,-16801
604887,425,699,-15588
604891,413,182,-15707
604895,428,-271,-16969
604899,289,212,-15959
604903,377,-84,-15389
604908,273,181,-17936
604912,-26,48,-15804
604915,21,-62,-16948
604919,103,-260,-16256
604923,300,43,-16025
604927,643,398,-17317
604931,-176,1,-15326
604935,640,253,-15347
604939,459,355,-17835
604943,609,44,-16390
604947,303,279,-16708
604951,704,746,-16016
604955,75,-449,-15949
604959,728,255,-16936
604963,753,136,-15938
604967,533,47,-16670
604971,-51,208,-16272
604975,450,68,-15790
604979,172,-321,-16769
604983,294,103,-17087
604987,-107,212,-15652
604991,14,430,-16861
604995,371,206,-16850
604999,400,300,-16675
605003,326,498,-15821
605007,44,-40,-17571
605011,256,-157,-15501
605015,532,-271,-17806
605019,416,-267,-17495
605024,-65,-138,-15165
605028,765,60,-17284
605032,250,148,-13846
605036,509,-378,-17818
605040,745,372,-16289
605044,336,-64,-16046
605048,2,-129,-17050
605052,797,50,-16420
605056,320,-533,-16784
605060,187,-86,-16670
605064,-91,374,-17145
605068,66,-216,-15777
605072,663,707,-16689
605076,403,303,-16242
605080,-260,2,-17281
605084,61,-44,-15860
605087,492,-348,-16901
605091,262,206,-16666
605095,446,68,-16609
605099,-11,186,-17106
605103,674,-16,-17377
605107,503,88,-16332
605111,517,-129,-16392
605115,678,10,-15939
605119,413,264,-16989
605123,539,-117,-16902
605127,125,109,-15857
605131,968,502,-17136
605135,53,260,-16862
605139,-150,2,-16004
605143,171,192,-15825
605147,792,283,-17736
605151,-117,33,-14873
605155,319,-25,-15910
605159,-49,-86,-16959
605163,678,-468,-16016
605167,235,-117,-16811
605171,451,-396,-16901
605175,-104,-659,-16594
605180,646,31,-16847
605183,134,-136,-17080
605188,591,237,-17628
605192,119,218,-15676
605196,513,94,-17322
605199,714,583,-16719
605203,439,256,-16275
605207,486,379,-16653
605211,330,351,-17198
605215,597,158,-15712
605219,216,154,-16943
605223,510,179,-16482
605227,-5,-41,-15922
605231,183,301,-17393
605235,369,-360,-15581
605240,574,-494,-17056
605244,207,127,-15874
605248,306,-457,-16385
605252,-196,211,-16730
605256,755,-382,-16330
605260,101,-24,-15995
605264,111,614,-16739
605268,115,-91,-15735
605272,279,262,-17627
605276,466,89,-17141
605280,-31,93,-16325
605284,596,-34,-16450
605288,276,54,-16481
605292,293,-43,-16551
605296,792,55,-16392
605300,106,-702,-16741
605304,893,-505,-16388
605308,375,342,-15776
605312,648,-735,-16771
605316,687,99,-16527
605320,719,-75,-16275
605324,247,-361,-17432
605328,199,701,-16565
605332,660,-20,-16356
605336,-92,-308,-16580
605340,31,749,-17611
605344,81,385,-14753
605348,-13,36,-18007
605352,142,573,-15839
605356,221,157,-15557
605360,378,404,-16967
605364,111,-202,-15871
605368,488,133,-16216
605372,94,86,-17775
605376,233,-263,-15426
605380,688,142,-17017
605384,597,-283,-17337
605388,546,-418,-15296
605392,388,355,-16907
605396,571,-275,-15757
605400,481,-65,-17547
605404,699,145,-17101
605408,275,0,-15726
605412,30,415,-17301
605416,259,9,-16629
605420,438,-61,-17095
605424,5,299,-16986
605427,76,258,-15979
605431,522,14,-16302
605435,435,121,-17064
605439,617,-618,-15246
605443,-176,407,-16593
605447,326,-172,-16137
605452,151,-260,-16315
605456,424,154,-15439
605460,328,89,-17325
605464,285,-164,-16058
605468,-133,246,-17702
605472,835,-168,-15711
605476,309,216,-16784
605480,609,507,-17097
605484,466,391,-15664
605488,818,-7,-17610
605492,40,243,-15116
605496,221,231,-16621
605500,211,87,-16484
605504,306,-24,-15809
605508,120,-172,-15561
605512,447,100,-16214
605516,192,-40,-17381
605520,290,-306,-16240
605524,395,312,-16378
605528,149,-258,-16954
605532,401,-234,-16324
605536,24,209,-16724
605540,135,-277,-15875
605544,436,610,-17133
605548,408,68,-15543
605552,460,147,-16362
605556,370,269,-17008
605560,402,-105,-15481
605564,814,502,-17127
605568,554,79,-16142
605572,560,439,-15633
605576,94,-130,-16179
605580,455,-221,-16836
605584,772,-60,-15740
605588,578,-58,-16542
605592,116,-207,-16438
605596,-113,470,-16752
605600,-29,-74,-16380
605604,558,-98,-16764
605608,291,267,-16815
605612,-380,217,-15429
605616,-35,156,-17337
605620,336,230,-15833
605624,637,124,-17116
605628,-146,-8,-15908
605632,-37,33,-17435
605636,690,171,-15763
605640,989,-210,-16261
605644,732,-11,-17034
605648,488,-201,-15253
605652,391,-227,-16243
605656,831,-201,-17847
605661,748,-198,-14377
605665,542,-66,-16947
605669,148,165,-16253
605673,293,-108,-14721
605677,440,64,-17366
605681,491,-200,-16258
605685,-23,311,-15760
605689,146,235,-17012
605693,35,-467,-15633
605697,747,389,-16142
605701,-119,277,-16061
605705,-348,-315,-16898
605709,394,166,-15392
605713,607,-235,-17145
605717,352,163,-16896
605721,33,3,-15525
605725,175,-260,-17151
605729,700,338,-16716
605733,792,181,-16030
605737,250,-28,-16609
605741,414,-167,-16272
605745,744,203,-16595
605749,834,91,-15665
605753,120,290,-16829
605757,292,-14,-16445
605761,101,78,-15869
605765,631,-19,-16801
605769,186,-207,-16844
605773,486,77,-16716
605777,-115,266,-16217
605781,488,-130,-17005
605785,346,61,-16430
605789,281,-125,-16633
605793,227,295,-17112
605797,360,-32,-16157
605801,533,-172,-16651
605805,422,298,-16260
605809,458,61,-16748
605813,492,128,-16503
605817,439,84,-15997
605821,538,112,-17222
605825,442,61,-15589
605829,520,7,-16843
605833,380,5,-16616
605837,58,91,-16619
605840,644,-178,-16416
605844,565,74,-16563
605848,354,-168,-16707
605852,64,38,-15106
605856,96,-107,-17784
605860,499,-261,-15523
605864,479,-82,-15698
605868,180,177,-16833
605872,14,145,-15779
605876,92,68,-16684
605880,523,195,-16251
605884,340,-20,-15975
605888,39,-169,-16269
605892,314,108,-16144
605896,425,-156,-16148
605900,613,392,-16854
605904,413,-220,-15997
605908,238,115,-16660
605912,430,2,-16267
605916,301,-124,-17387
605920,507,59,-15559
605924,127,34,-15538
605928,-62,-330,-17168
605932,494,-116,-15851
605936,496,30,-16423
605940,111,61,-16725
605944,357,-280,-16077
605948,295,470,-15625
605952,208,200,-16930
605956,454,108,-16424
605960,295,1,-15226
605964,174,-112,-17923
605968,233,277,-16436
605972,433,71,-16592
605976,516,-360,-16372
605980,9,240,-15549
605984,484,-39,-16665
605988,401,122,-17664
605992,429,40,-14827
605996,240,52,-17626
606000,227,-55,-16873
606004,208,-57,-15890
606008,370,106,-16927
606012,457,-193,-16736
606016,386,81,-16282
606020,485,-21,-16724
606024,680,-49,-16527
606028,209,-40,-15924
606032,647,189,-16126
606036,586,-104,-17232
606040,260,33,-15152
606044,153,11,-16554
606048,414,4,-16198
606052,173,217,-16220
606056,124,-177,-16294
606060,369,158,-16276
606064,511,50,-16146
606068,77,-1,-16794
606072,743,60,-15772
606075,617,343,-16967
606079,252,-300,-16606
606084,359,174,-15946
606088,538,121,-16411
606092,536,-108,-16416
606096,339,44,-16293
606100,229,-181,-16243
606104,274,56,-16903
606108,429,145,-15927
606112,248,127,-16547
606116,159,0,-16600
606119,196,16,-16167
606123,398,69,-15473
606127,149,-82,-17808
606131,412,-229,-14997
606135,350,426,-17654
606139,143,-96,-15378
606143,613,111,-15424
606147,416,9,-17800
606151,56,-188,-15012
606155,512,119,-16945
606159,671,-236,-16638
606163,362,-28,-16127
606167,396,188,-16981
606171,75,56,-16924
606175,477,194,-15480
606179,358,86,-18103
606183,233,26,-15159
606187,77,2,-16115
606191,309,405,-16895
606195,507,-279,-16932
606199,413,261,-16224
606203,613,-70,-16889
606207,411,27,-16722
606211,221,-27,-15589
606215,768,-215,-16449
606219,594,118,-16906
606223,374,-260,-15270
606227,283,146,-17372
606231,113,-62,-15844
606235,615,-7,-16744
606239,450,215,-17391
606243,-88,89,-15698
606247,204,54,-16055
606251,229,173,-17033
606255,440,-200,-15962
606259,441,366,-16189
606263,129,199,-16259
606267,312,-171,-17056
606271,392,103,-17174
606275,561,-82,-16070
606279,493,-110,-17375
606283,104,-46,-15761
606287,232,327,-16581
606291,428,16,-17293
606295,747,207,-15530
606299,-177,-245,-17494
606303,112,-364,-16136
606307,832,269,-16285
606311,257,-63,-16744
606315,410,-127,-16186
606319,379,373,-16512
606323,263,-79,-17592
606327,324,436,-15737
606331,253,15,-17122
606335,218,303,-17383
606339,219,-64,-15710
606343,251,538,-16903
606347,392,-444,-17024
606351,402,129,-15643
606355,602,-76,-16293
606359,453,-151,-16838
606363,261,69,-15953
606367,338,-203,-17640
606371,605,-33,-16222
606375,237,469,-16255
606379,349,-123,-17108
606383,-48,182,-16362
606387,583,576,-17125
606391,511,-12,-18466
606395,115,212,-15312
606399,523,222,-16317
606403,280,160,-17389
606407,530,79,-15335
606411,462,35,-17390
606415,70,57,-16154
606419,574,7,-15731
606423,516,-463,-16468
606427,344,-344,-17101
606431,337,-536,-15695
606435,187,383,-16829
606439,242,-324,-16720
606443,652,292,-15506
606447,88,434,-16957
606451,98,32,-16929
606455,259,215,-16033
606459,637,164,-16710
606463,367,166,-16622
606467,178,433,-15826
606471,231,268,-15896
606475,465,8,-16999
606479,543,-167,-15236
606483,410,13,-16197
606487,261,-58,-16688
606491,514,-49,-15126
606495,120,7,-16932
606499,875,-121,-15939
606503,434,250,-14821
606507,234,-247,-17435
606511,304,-339,-15207
606515,517,-75,-17222
606519,326,185,-14958
606523,129,172,-18442
606527,424,148,-16396
606531,515,177,-15872
606535,427,343,-17361
606539,543,-82,-15711
606543,295,27,-17121
606547,551,29,-16902
606551,653,-242,-16498
606555,58,-187,-16299
606559,309,-75,-15666
606563,522,-209,-16738
606567,388,122,-16860
606571,557,-198,-16062
606575,211,-67,-16471
606579,349,-57,-16759
606583,548,129,-16330
606587,190,172,-16275
606591,24,-28,-17096
606595,53,-172,-15983
606599,403,411,-17527
606603,189,-159,-15391
606607,433,139,-17419
606611,217,18,-16246
606615,236,-39,-16124
606619,474,-262,-17449
606623,475,-23,-16745
606627,256,-114,-15785
606631,497,-234,-17445
606636,502,69,-15814
606639,471,-67,-17168
606643,816,-4,-16962
606647,412,-338,-15909
606651,334,58,-16846
606655,831,-154,-15647
606660,186,103,-17439
606664,453,-80,-15911
606668,-78,464,-16299
606672,-10,251,-16282
606676,380,-55,-17077
606680,249,319,-15314
606684,295,99,-17208
606688,203,27,-16795
606691,327,-287,-15954
606696,406,-415,-17631
606700,445,265,-17127
606704,334,-225,-15743
606708,626,-62,-17338
606712,551,-100,-16649
606716,259,-273,-16682
606720,605,241,-16033
606724,474,-36,-16036
606728,302,269,-16737
606732,394,278,-16098
606736,345,122,-17117
606740,512,419,-15291
606744,354,59,-16955
606748,161,214,-16399
606752,424,170,-15938
606756,475,-189,-16640
606760,228,19,-16694
606764,170,-142,-15429
606768,76,-230,-17017
606772,419,23,-16266
606776,435,-157,-15618
606780,573,51,-16725
606784,541,-29,-16254
606788,269,117,-16084
606792,392,282,-16316
606796,719,62,-15803
606800,142,790,-17287
606804,389,186,-15909
606808,269,368,-17051
606812,628,750,-16517
606816,708,236,-16474
606820,-96,80,-15706
606824,917,-189,-16989
606828,488,9,-16566
606832,415,-111,-16181
606836,458,74,-16833
606840,175,-142,-15827
606844,233,56,-17109
606848,190,72,-16011
606852,-53,-3,-16717
606856,300,-58,-16876
606860,217,-31,-15901
606864,-162,529,-17479
606868,674,336,-15177
606872,603,515,-16091
606876,22,223,-17170
606880,689,428,-15620
606884,429,236,-17184
606888,11,144,-15816
606892,547,498,-16972
606896,451,-103,-15309
606900,75,69,-16792
606904,459,-58,-16035
606908,648,330,-16737
606912,44,-233,-17421
606916,509,-150,-16214
606920,513,-235,-16537
606924,277,302,-17020
606928,567,-32,-16800
606932,256,266,-15158
606936,115,-20,-17448
606940,541,414,-14816
606944,378,-286,-17909
606948,175,314,-18234
606952,440,548,-14791
606956,44,120,-16702
606960,-135,-106,-16451
606964,869,253,-15753
606968,184,431,-16818
606972,565,91,-14865
606976,412,587,-18124
606980,102,-468,-18004
606984,586,-323,-14919
606988,377,186,-17519
606992,124,-389,-16522
606997,671,-93,-16662
607001,540,-34,-17665
607005,-222,201,-15566
607009,-158,-162,-16556
607013,547,89,-17642
607017,206,327,-15583
607021,190,148,-16709
607025,-128,180,-17476
607029,399,699,-15556
607033,287,418,-18010
607037,952,189,-16382
607041,-101,-72,-15878
607045,335,35,-17590
607049,518,-278,-15720
607053,315,-161,-16774
607057,377,-419,-17432
607061,48,600,-15583
607065,573,379,-17120
607069,332,-281,-16839
607073,482,-184,-16544
607077,366,307,-16056
607081,-6,-375,-17259
607085,244,-117,-16164
607089,544,-250,-16343
607093,680,57,-17170
607097,564,329,-16213
607101,-113,-126,-16689
607105,514,183,-17176
607109,538,218,-15857
607113,354,72,-17071
607117,248,-60,-15838
607121,298,115,-15888
607125,658,102,-17121
607129,555,159,-15527
607133,-34,343,-15716
607137,-87,-40,-17085
607141,522,199,-15384
607145,541,-138,-15849
607150,334,-407,-17681
607154,372,24,-15381
607158,52,-155,-16769
607162,489,102,-16484
607166,470,155,-16624
607170,314,-39,-16213
607173,474,56,-17278
607177,177,140,-17248
607181,492,305,-15428
607185,732,-179,-17298
607190,456,-169,-16846
607194,472,-17,-16178
607198,24,320,-16606
607202,527,-803,-15968
607206,508,234,-17365
607210,135,-199,-15554
607214,249,268,-16879
607218,303,163,-16484
607222,463,207,-15925
607226,702,-133,-17275
607230,163,70,-15588
607234,235,109,-16362
607238,515,121,-17542
607242,252,127,-17574
607246,59,-14,-15957
607250,259,636,-16134
607254,404,-261,-16497
607258,614,-65,-16950
607262,26,266,-16977
607266,368,229,-16388
607270,161,63,-16259
607274,800,493,-17229
607278,303,48,-15685
607282,256,339,-16783
607286,144,-54,-16324
607290,938,-156,-16834
607294,431,36,-16398
607298,-30,131,-16209
607302,649,-150,-16868
607306,498,-262,-15843
607310,504,336,-17418
607314,-159,701,-15184
607318,118,43,-17181
607322,680,-123,-15491
607326,396,173,-16274
607330,316,247,-16188
607334,-6,-51,-16549
607338,604,150,-16205
607342,346,65,-16957
607346,211,20,-16960
607350,115,-297,-15747
607354,300,46,-16708
607358,426,-81,-15942
607362,612,-72,-15851
607366,249,0,-16983
607369,431,-273,-16492
607374,303,20,-16233
607377,618,-19,-15987
607381,384,251,-17168
607385,813,93,-16588
607389,72,523,-17720
607393,693,363,-16233
607397,447,554,-16840
607401,208,603,-16869
607405,269,198,-15946
607409,229,766,-16459
607413,577,-406,-16492
607417,-129,-614,-15656
607422,366,294,-15707
607426,275,-673,-15701
607430,205,-62,-17380
607434,274,-312,-16058
607438,615,-8,-16711
607442,264,58,-16679
607446,453,-86,-16470
607450,435,-357,-16017
607454,6,206,-17250
607458,-454,326,-16189
607462,1016,395,-16416
607466,229,135,-15661
607470,412,462,-17919
607474,191,135,-14328
607478,260,325,-16965
607482,357,166,-16260
607486,377,-279,-15789
607490,737,-110,-16643
607494,474,-44,-15399
607498,527,-506,-14139
607502,390,-177,-17386
607506,160,-787,-15338
607510,393,-150,-14859
607514,163,-176,-17721
607519,323,-472,-15949
607523,249,456,-16347
607527,688,-270,-16748
607531,377,-350,-16084
607535,167,771,-15230
607539,443,269,-17087
607543,100,314,-16940
607547,542,-68,-15358
607551,331,-144,-18172
607555,71,147,-17190
607559,204,-323,-16637
607563,763,-66,-16898
607567,205,-54,-17097
607571,50,-219,-15991
607575,422,-51,-17044
607579,338,-204,-16821
607583,470,-144,-15638
607587,386,62,-17781
607591,29,-209,-14912
607595,317,200,-16949
607599,622,118,-16776
607603,597,185,-15696
607607,187,-75,-17237
607611,133,322,-15814
607615,739,-9,-16679
607619,344,401,-15834
607623,619,72,-17114
607627,222,82,-15585
607631,389,506,-15524
607635,358,-409,-16994
607639,688,-7,-16695
607643,121,-5,-15912
607647,357,-469,-17152
607651,529,241,-16710
607655,466,-116,-16348
607659,69,-81,-16777
607663,485,80,-16757
607667,18,127,-16304
607671,512,153,-16293
607675,229,186,-17848
607679,373,298,-14441
607683,424,248,-16666
607687,312,0,-16239
607691,397,-81,-16336
607695,263,50,-18207
607699,718,-128,-14997
607703,478,-17,-17177
607707,838,-384,-15666
607711,872,139,-16806
607715,496,-277,-17375
607719,288,-422,-14730
607723,445,124,-18669
607727,218,-365,-15447
607731,74,393,-17062
607735,202,79,-16562
607739,17,104,-15289
607743,157,180,-17496
607747,730,314,-16126
607751,-30,-43,-16958
607755,245,667,-16070
607759,461,143,-15081
607763,665,204,-17284
607767,197,13,-15318
607771,410,104,-16996
607775,140,-73,-16446
607779,674,-170,-16127
607783,758,-259,-16607
607787,306,-310,-16862
607791,509,128,-15949
607795,387,88,-16648
607799,578,221,-16424
607803,442,592,-15581
607807,129,85,-17258
607811,746,-16,-16975
607815,378,364,-16051
607819,-94,254,-16589
607823,618,72,-15588
607827,362,795,-16473
607831,25,11,-16380
607835,330,120,-17063
607839,-449,166,-14850
607843,763,-85,-16469
607847,404,140,-16340
607851,-88,-80,-15194
607855,-134,50,-16035
607859,470,-418,-16592
607863,598,147,-14749
607867,345,-118,-17825
607871,371,630,-15871
607875,287,-29,-14403
607879,538,-101,-18616
607883,943,169,-15262
607887,92,41,-15562
607891,431,501,-17387
607895,583,269,-17304
607899,755,304,-15635
607903,649,397,-16633
607907,52,-108,-15026
607911,-250,-27,-17104
607915,255,153,-16242
607919,208,-882,-16395
607923,36,483,-16955
607927,439,-86,-16173
607931,201,77,-16217
607935,175,101,-17081
607939,375,-99,-16991
607943,623,117,-15701
607947,58,39,-17827
607951,51,68,-16665
607955,442,326,-16773
607959,745,43,-17036
607963,332,132,-15717
607967,439,112,-17168
607971,656,445,-17367
607975,739,329,-15564
607979,468,225,-17272
607983,474,-101,-15612
607987,158,-56,-16797
607991,607,102,-17150
607995,473,-17,-15709
607999,558,-193,-16615
608003,45,-77,-16457
608007,-43,104,-15739
608011,337,-346,-17213
608015,119,247,-17729
608019,753,-413,-15367
608023,-76,430,-16577
608027,250,-460,-16240
608031,431,240,-16275
608035,547,520,-15672
608039,447,-21,-16297
608043,400,114,-17955
608047,424,645,-15471
608051,741,-157,-17958
608055,431,599,-15031
608059,413,-560,-15642
608064,-424,-40,-18197
608068,800,-358,-14790
608072,708,-443,-17221
608076,246,35,-15715
608080,136,-90,-15537
608084,73,-340,-16911
608088,609,-158,-16379
608092,436,241,-15747
608096,-266,190,-17172
608100,184,266,-15765
608104,315,291,-16546
608108,500,473,-16152
608112,19,439,-16229
608116,430,205,-15723
608120,451,385,-17029
608124,484,-47,-16149
608128,432,34,-15486
608132,412,-82,-16008
608136,219,-249,-16073
608140,658,-119,-16963
608144,278,-615,-16104
608148,285,-465,-16754
608152,372,-387,-16904
608156,274,21,-15740
608160,365,268,-17527
608164,523,299,-15555
608168,300,383,-15232
608172,393,325,-17817
608176,565,320,-16023
608180,196,237,-16901
608184,584,231,-16197
608188,250,495,-18008
608192,418,-492,-14278
608196,595,405,-18604
608200,483,-554,-16080
608204,556,281,-16389
608208,108,-157,-17118
608212,507,-448,-15133
608216,464,240,-18190
608220,486,126,-15045
608224,348,153,-15691
608228,-181,174,-17415
608233,404,189,-16120
608237,513,617,-16865
608241,536,148,-15739
608244,362,336,-16207
608248,443,260,-16496
608252,237,-181,-16685
608257,525,-58,-16650
608261,522,205,-16478
608265,230,-1042,-16880
608269,-35,511,-16395
608273,699,-291,-17489
608277,721,-764,-15074
608281,246,522,-15882
608285,118,267,-16496
608289,570,-163,-16332
608293,373,-96,-16887
608297,409,391,-15142
608301,3,34,-16076
608305,-542,677,-16523
608309,696,299,-15673
608313,220,112,-17238
608317,486,134,-15939
608321,138,77,-15675
608325,175,249,-16563
608329,340,-85,-17095
608333,811,70,-16238
608337,17,-62,-16574
608341,238,-290,-16840
608345,211,-215,-15681
608349,765,-316,-17717
608353,732,-124,-15969
608357,288,-466,-16831
608361,114,174,-16197
608365,593,-28,-15232
608369,466,201,-17556
608373,118,665,-15582
608377,324,569,-16858
608381,7,753,-16842
608385,457,238,-15098
608389,433,649,-18293
608393,369,315,-15295
608397,488,97,-14404
608401,351,135,-18055
608405,227,-187,-15429
608409,104,-266,-16018
608413,284,-105,-17593
608417,431,-686,-14194
608422,499,286,-16583
608426,189,-86,-16269
608430,698,194,-15739
608434,547,-11,-16882
608438,429,91,-16201
608442,581,397,-15989
608446,354,747,-16519
608450,527,553,-15461
608454,632,741,-17520
608458,92,791,-15365
608462,458,83,-15900
608465,9,311,-17579
608469,590,-381,-15510
608473,207,211,-16414
608477,259,-495,-16654
608481,128,-146,-15534
608486,516,42,-17022
608489,-9,-497,-16592
608493,312,142,-16586
608497,-170,70,-17145
608501,606,131,-15420
608505,505,187,-16999
608510,337,951,-15671
608514,-103,-52,-17064
608518,412,510,-16689
608522,472,663,-16408
608526,370,394,-16559
608530,73,138,-15180
608533,600,417,-17661
608537,572,77,-16592
608541,-11,261,-15804
608545,521,-91,-16024
608549,595,-128,-17318
608553,726,-282,-15398
608558,379,-241,-16336
608562,185,-96,-16752
608566,572,-515,-16523
608570,433,115,-16629
608574,483,176,-17169
608578,-37,68,-16336
608582,135,731,-17293
608586,-94,215,-16418
608590,130,290,-16891
608594,-33,1052,-15438
608598,-58,-23,-17815
608602,375,332,-16012
608606,129,-117,-17727
608610,220,-197,-15450
608614,455,-333,-17270
608618,173,-444,-16513
608622,290,-226,-16123
608626,270,-26,-18025
608630,575,-196,-15465
608635,382,66,-16286
608638,898,-43,-16903
608642,613,-18,-15304
608646,288,322,-16559
608651,637,7,-16538
608654,367,238,-16429
608658,-172,229,-16764
608662,320,606,-16968
608667,-83,149,-15429
608671,-156,38,-16803
608674,-96,-67,-16711
608678,523,-410,-14946
608683,528,133,-17751
608687,309,317,-15360
608691,21,-228,-14428
608695,171,-433,-18941
608699,695,0,-16373
608702,318,49,-16964
608706,320,10,-16240
608710,616,493,-17058
608714,158,335,-15711
608718,198,800,-17101
608722,469,99,-18591
608726,602,466,-14682
608730,214,356,-17506
608734,476,459,-16445
608738,789,73,-15273
608742,578,151,-17759
608746,167,-271,-15513
608750,226,52,-16092
608754,292,-162,-16289
608758,765,-108,-16574
608762,-70,-27,-16455
608766,129,-294,-16801
608770,225,-32,-15300
608774,46,64,-15582
608778,320,780,-17143
608782,-66,490,-16463
608786,209,-144,-17199
608790,291,348,-16885
608794,460,-377,-16488
608798,578,332,-17178
608802,493,266,-15962
608807,561,-95,-16535
608810,320,-118,-16573
608815,659,391,-16387
608819,278,51,-17828
608822,466,269,-15565
608826,362,-133,-15915
608831,161,65,-16004
608835,458,-730,-16139
608839,288,282,-15981
608843,408,-163,-16546
608847,-87,-655,-15971
608851,337,760,-17036
608855,417,496,-15565
608859,182,172,-16507
608863,351,513,-16394
608867,160,281,-16458
608871,622,556,-16568
608875,426,19,-15912
608879,192,613,-16880
608883,253,-34,-16524
608887,799,-178,-16727
608891,239,106,-16397
608895,600,-312,-16936
608899,294,-102,-15695
608903,87,-296,-16944
608907,459,-105,-16833
608911,223,-67,-13769
608915,754,72,-16015
608919,193,-179,-16834
608923,386,547,-15722
608927,455,246,-17575
608931,328,457,-16987
608935,302,247,-15976
608939,150,557,-18372
608943,-95,49,-15307
608947,349,222,-16960
608951,338,162,-16765
608955,-139,82,-16122
608959,488,183,-17534
608963,551,-507,-15447
608967,299,-27,-15891
608971,224,-559,-15196
608975,110,-266,-17518
608980,-57,-230,-14996
608984,379,161,-16918
608988,164,160,-15377
608992,85,455,-16784
608996,94,131,-17032
609000,1080,183,-16227
609004,718,836,-15280
609008,808,-306,-16088
609012,109,110,-16787
609016,1044,346,-15864
609020,412,-335,-16613
609024,630,451,-16609
609028,205,-165,-16474
609032,-390,-334,-16148
609036,538,-336,-15956
609040,52,-228,-17196
609044,-325,337,-15569
609048,52,37,-16600
609052,379,344,-16028
609056,79,18,-16584
609060,-149,461,-15566
609064,109,311,-16062
609068,411,73,-17123
609072,339,-239,-16216
609076,321,358,-16452
609080,497,354,-16157
609084,384,-359,-16719
609088,683,148,-16908
609092,436,-59,-18149
609096,624,405,-15195
609100,582,60,-17122
609104,652,-77,-16743
609108,443,106,-16339
609112,589,300,-16153
609116,314,-165,-17537
609120,356,77,-15421
609124,398,357,-16784
609128,400,219,-16726
609132,480,-215,-14947
609136,82,355,-16974
609140,4,-34,-15883
609144,83,924,-16203
609148,202,-486,-16986
609152,95,-56,-15638
609156,-119,159,-16771
609160,313,-294,-15992
609164,472,390,-17110
609168,125,157,-16781
609172,262,264,-15762
609176,510,325,-15160
609180,584,118,-16527
609184,617,246,-17073
609188,820,374,-15441
609192,839,86,-18382
609196,317,66,-15841
609200,561,123,-17004
609204,491,223,-16399
609208,218,131,-15937
609212,641,263,-17179
609216,260,245,-16005
609220,75,227,-16836
609224,615,177,-16195
609228,260,-236,-18412
609232,164,427,-14432
609236,-81,22,-17582
609240,522,-615,-16618
609244,238,408,-16257
609248,193,273,-17423
609252,689,-16,-16868
609256,947,541,-15442
609260,437,-192,-18882
609264,359,253,-16515
609268,478,164,-16663
609272,390,206,-16798
609276,265,21,-16735
609280,480,830,-16578
609284,491,-124,-17801
609288,195,451,-15757
609292,252,459,-16289
609296,352,145,-16663
609300,442,171,-15673
609304,327,-37,-17402
609308,-70,-332,-15618
609312,537,365,-15769
609316,468,-67,-16840
609320,728,282,-15539
609324,-95,443,-17042
609328,421,385,-17910
609332,389,-144,-15639
609336,164,166,-15871
609340,301,533,-17297
609344,141,-219,-15520
609349,266,319,-16240
609353,538,581,-16885
609357,318,-182,-15694
609361,47,178,-16423
609365,715,-139,-16340
609369,562,86,-15730
609373,556,407,-15288
609377,194,445,-17312
609381,341,127,-16196
609385,506,-139,-16326
609389,392,618,-16105
609393,209,73,-13657
609397,171,-118,-19258
609401,319,769,-15310
609405,23,169,-15123
609409,290,619,-18639
609413,-208,-180,-15035
609417,347,497,-16604
609421,259,397,-16375
609425,242,19,-16490
609429,365,-222,-16145
609433,255,517,-17357
609437,877,-603,-16977
609441,244,387,-16449
609445,796,-263,-15911
609449,443,-321,-16324
609453,144,-178,-16434
609457,1236,-76,-16576
609461,798,-48,-15784
609465,423,0,-16453
609469,832,310,-16938
609473,642,88,-16262
609477,172,571,-16258
609481,715,526,-16739
609485,-181,295,-15707
609489,278,741,-17096
609493,428,85,-15750
609497,194,608,-16470
609501,34,78,-16617
609505,260,-190,-15996
609509,15,342,-15914
609513,210,-126,-16501
609517,54,-186,-16313
609521,698,-244,-16851
609525,248,-135,-16936
609529,-302,-339,-16230
609534,579,327,-16356
609538,522,-327,-16295
609542,195,304,-17108
609546,245,286,-15124
609550,279,426,-17103
609554,709,269,-16770
609558,508,565,-16234
609562,454,544,-17848
609566,291,-53,-14920
609570,107,298,-17531
609574,579,-418,-15246
609578,437,-161,-17625
609582,473,-109,-16426
609586,166,-767,-16664
609590,256,-316,-17461
609594,315,301,-16549
609598,9,-157,-15973
609602,35,127,-18024
609606,-142,-266,-14761
609610,572,377,-17407
609614,215,-141,-16618
609618,240,491,-15931
609622,432,195,-17113
609626,584,358,-17170
609630,226,123,-15635
609634,625,660,-16334
609638,525,39,-17739
609642,787,94,-14993
609646,526,120,-16738
609650,-63,285,-16937
609654,860,-96,-15645
609658,552,-495,-17304
609662,430,-273,-16719
609667,400,547,-17565
609670,184,-421,-16861
609675,34,-14,-14735
609678,651,411,-16932
609682,354,282,-16125
609686,36,-166,-15724
609691,163,402,-15875
609695,-37,237,-16586
609699,254,274,-16674
609703,71,-38,-16324
609706,398,4,-16824
609710,-58,237,-16131
609714,-81,453,-16872
609718,1016,-84,-15795
609722,474,-87,-16300
609726,569,220,-16101
609730,348,-22,-17461
609734,402,-291,-15543
609739,312,-229,-16557
609743,533,-110,-15532
609747,455,214,-17240
609751,253,-81,-15883
609755,325,413,-16018
609759,415,-38,-17279
609763,561,562,-15590
609767,385,615,-17447
609771,458,326,-16644
609775,289,3,-15484
609779,300,138,-16840
609783,376,-276,-16726
609787,245,310,-15877
609791,511,132,-17543
609795,115,135,-15271
609799,90,-133,-15697
609803,605,-56,-17460
609807,192,12,-16830
609811,173,235,-16024
609815,388,170,-16784
609819,-261,236,-15751
609823,786,-91,-18015
609827,226,147,-14961
609831,262,367,-16503
609835,199,159,-17000
609839,513,332,-16254
609843,446,22,-16468
609847,363,-322,-16482
609851,196,188,-16927
609855,283,-213,-15514
609859,212,-450,-17717
609863,754,230,-17475
609867,799,535,-15895
609871,-41,-439,-16417
609875,310,-40,-16680
609879,549,354,-15758
609883,288,287,-15785
609887,755,61,-17319
609891,107,293,-14909
609895,389,521,-16366
609899,580,-18,-16343
609903,227,279,-15707
609907,285,291,-16401
609911,297,-209,-15902
609915,487,-1,-15386
609919,126,-218,-16731
609923,666,-240,-16649
609928,-36,280,-15840
609932,470,-98,-17529
609936,331,-285,-15320
609940,179,-152,-15194
609944,570,358,-17892
609948,535,-411,-15545
609952,319,415,-16024
609956,-42,-121,-17123
609960,403,-142,-15687
609964,345,36,-17086
609968,258,-118,-15698
609972,323,811,-15949
609976,115,410,-17563
609980,452,-152,-15092
609984,376,620,-16065
609988,109,-239,-17897
609992,494,-52,-14226
609996,244,270,-16711
610000,-87,254,-15738
610004,398,63,-16014
610008,946,219,-16636
610012,-302,90,-16298
610016,68,36,-17798
610020,446,463,-14325
610024,382,194,-18963
610028,352,209,-15899
610032,730,263,-16359
610036,-237,32,-16655
610040,-242,177,-16384
610044,905,-78,-16708
610048,367,396,-16530
610052,-333,-360,-16708
610056,418,0,-16055
610060,256,-15,-18137
610064,690,-106,-15091
610068,323,105,-17387
610072,153,42,-16478
610076,489,12,-16772
610080,469,18,-17530
610084,516,-42,-16274
610088,258,273,-15864
610092,131,119,-16694
610096,53,-52,-16471
610100,551,607,-17211
610104,393,-28,-15217
610108,19,165,-16882
610112,169,443,-15475
610116,282,-81,-16480
610120,421,-110,-17482
610124,13,200,-16498
610128,-28,-500,-15924
610132,586,369,-17514
610136,1050,-113,-16379
610140,303,-438,-15836
610144,-231,223,-17353
610148,236,-133,-15738
610152,553,-90,-17775
610156,461,266,-16836
610160,254,150,-16371
610164,-106,-5,-16896
610168,395,672,-16364
610172,784,250,-17586
610176,589,202,-16426
610180,-19,-84,-16880
610184,116,-42,-15957
610189,541,10,-15988
610192,502,-354,-17046
610197,256,80,-15697
610201,97,105,-17105
610204,-89,-532,-15968
610209,646,-49,-17001
610213,389,-221,-15817
610217,-70,-253,-16799
610221,392,46,-17442
610225,350,90,-16030
610229,588,200,-15993
610233,24,38,-16349
610236,151,-265,-16259
610240,430,780,-15868
610244,115,323,-17267
610248,743,23,-15578
610252,318,5,-14734
610256,139,-19,-17679
610260,431,-173,-15944
610264,307,-56,-17184
610268,690,-242,-16137
610272,38,-156,-14937
610276,353,-136,-18304
610281,175,-177,-14778
610285,451,-60,-16337
610289,18,305,-17689
610293,189,4,-17020
610296,-136,532,-15804
610301,429,185,-16680
610305,698,114,-15184
610309,-213,62,-17111
610313,54,27,-16293
610316,663,146,-14663
610320,508,-22,-19051
610324,256,53,-16196
610328,583,-29,-17257
610332,331,413,-15284
610336,377,-650,-16550
610340,888,-61,-17024
610344,323,157,-15188
610349,-67,49,-17919
610352,224,-219,-15336
610357,993,265,-16794
610361,588,307,-16745
610365,119,146,-15805
610369,165,241,-17556
610373,280,497,-14887
610377,522,337,-18364
610381,356,122,-15748
610385,69,357,-16625
610388,180,155,-16864
610392,417,-233,-15611
610397,415,-193,-18372
610401,233,-155,-17020
610405,259,-191,-16520
610409,526,-63,-16589
610413,326,-338,-17246
610417,58,242,-16007
610421,408,170,-15948
610425,523,-142,-15870
610429,362,254,-16305
610433,220,114,-17329
610437,290,33,-16603
610441,374,248,-16773
610445,250,77,-16577
610449,679,92,-17505
610453,10,387,-15423
610457,115,-313,-17558
610461,465,471,-16260
610465,448,-365,-16340
610469,358,25,-16813
610473,222,-69,-16252
610477,88,-340,-16464
610481,172,273,-16470
610485,496,-453,-16590
610489,-46,347,-15996
610493,332,-102,-16579
610497,161,-195,-16040
610501,357,691,-15217
610505,723,-104,-16867
610509,-94,215,-17094
610513,313,73,-14445
610517,548,177,-18612
610521,119,187,-16633
610525,102,338,-15913
610529,202,10,-16080
610533,512,-227,-17378
610537,259,-191,-15841
610541,568,238,-16912
610545,-14,-486,-15934
610549,291,13,-17060
610553,441,-239,-15324
610557,44,58,-17372
610561,301,166,-16077
610565,274,-35,-15666
610569,128,76,-16326
610573,636,275,-15648
610577,361,329,-16771
610581,383,209,-16224
610585,-70,577,-15623
610589,-23,-46,-17540
610593,440,-88,-15626
610597,238,-231,-16076
610601,182,-101,-17814
610605,527,-61,-15228
610609,343,-270,-16633
610614,374,-377,-16651
610618,284,41,-14744
610622,484,279,-18223
610626,9,-30,-15122
610630,803,605,-17169
610634,423,-246,-16155
610638,818,515,-16170
610642,343,40,-16735
610646,241,-219,-15837
610650,405,227,-14708
610654,232,199,-17738
610658,514,-105,-16138
610662,-112,-242,-15690
610666,136,-108,-18124
610670,213,-94,-15498
610674,358,-378,-16814
610678,175,-83,-16815
610682,222,-74,-16242
610686,296,501,-17463
610690,550,128,-15753
610694,235,187,-16943
610698,352,381,-16580
610702,215,-96,-16547
610706,827,499,-17117
610710,260,-22,-15927
610714,486,163,-16257
610718,135,222,-16677
610722,431,-93,-16066
610726,632,254,-16713
610730,549,-171,-16319
610734,250,-197,-17608
610738,566,47,-16280
610742,446,-127,-17035
610746,414,69,-16302
610750,8,-82,-15643
610754,-47,304,-17363
610758,368,-38,-16735
610762,49,253,-16321
610766,154,59,-17271
610770,496,474,-16548
610774,425,377,-17297
610778,438,-310,-15238
610782,285,103,-15971
610786,353,-34,-16114
610790,377,-427,-16796
610794,186,-98,-15303
610798,572,-160,-18240
610802,341,4,-15745
610806,-108,-226,-17004
610810,654,-60,-16737
610815,198,336,-16549
610819,535,-8,-16355
610822,257,-133,-17270
610827,305,448,-17121
610831,47,261,-16092
610835,459,181,-17278
610839,150,620,-16395
610843,601,328,-16266
610847,359,364,-16812
610851,587,501,-15834
610855,638,531,-16975
610859,793,6,-16848
610862,230,-396,-16488
610867,983,41,-16295
610870,683,225,-16557
610874,721,-464,-16587
610879,530,-144,-15055
610883,207,-182,-17479
610887,204,-165,-16381
610891,697,140,-15080
610895,43,692,-18947
610899,179,136,-13323
610903,306,399,-15903
610907,-101,401,-16581
610911,231,-133,-15227
610915,135,311,-17097
610919,-44,132,-16651
610923,312,-169,-16657
610927,408,400,-16576
610931,85,295,-16476
610935,459,-159,-17386
610939,629,-56,-15490
610943,243,-20,-16757
610947,500,75,-16794
610951,457,222,-15650
610955,556,7,-16463
610959,262,0,-16682
610963,766,335,-14965
610967,533,-61,-17343
610971,722,136,-16582
610975,532,94,-17443
610979,234,412,-15878
610983,206,302,-16973
610987,548,-17,-17054
610991,146,51,-15756
610995,8,0,-17304
610998,-283,88,-15677
611002,435,2,-16359
611006,783,-38,-16478
611010,113,-364,-16403
611014,-92,-443,-16935
611018,452,-118,-15282
611022,674,-402,-17874
611026,130,-371,-16887
611031,346,84,-16102
611034,201,-87,-16847
611038,141,338,-16374
611043,619,-28,-16768
611047,72,374,-16713
611050,-105,151,-16749
611055,-17,192,-15100
611059,728,709,-16183
611063,414,-137,-16734
611067,321,27,-15465
611070,-174,62,-16161
611074,435,-306,-16577
611079,576,-102,-16332
611083,398,-87,-17700
611087,131,-443,-15872
611091,274,-80,-16066
611095,763,-519,-17336
611099,593,-186,-16709
611103,-110,155,-15766
611107,155,48,-16857
611111,576,195,-17085
611115,504,228,-15978
611119,531,170,-16729
611123,123,-101,-16139
611127,70,243,-15244
611131,772,279,-17301
611135,295,185,-17282
611139,322,-25,-15933
611143,292,117,-16683
611147,248,12,-17690
611151,908,-477,-15706
611155,335,16,-16740
611159,218,-427,-17524
611163,69,-190,-15027
611167,577,-337,-16566
611171,743,433,-16969
611175,530,64,-16278
611179,130,130,-17750
611183,204,316,-15225
611187,582,-48,-17635
611191,519,-92,-15120
611195,441,244,-17559
611199,42,262,-16699
611203,183,-368,-15691
611207,417,83,-17288
611211,205,-206,-15480
611215,483,-52,-17483
611219,-352,-139,-15579
611223,122,102,-17522
611227,680,382,-16321
611231,-14,147,-16566
611235,285,-107,-16704
611239,64,420,-16123
611243,376,-144,-16139
611247,749,24,-17567
611251,378,74,-16777
611255,695,-73,-16523
611259,-107,-77,-15605
611263,800,-372,-16794
611267,411,134,-15928
611271,614,-75,-16866
611275,-4,257,-17409
611279,-53,208,-15751
611283,510,161,-16900
611287,247,168,-16712
611291,282,-16,-16466
611295,-84,864,-18338
611299,10,-667,-15286
611303,675,162,-16721
611307,85,71,-16367
611311,245,-123,-16319
611315,145,30,-17132
611319,481,170,-16065
611323,701,149,-17061
611327,277,-17,-17542
611331,61,251,-15593
611335,466,186,-17217
611339,590,77,-17792
611343,702,-33,-15114
611347,-90,516,-17415
611351,613,-58,-16902
611355,328,288,-14686
611359,236,-104,-17029
611363,441,-254,-16259
611367,565,-41,-15976
611371,548,-84,-17180
611375,259,175,-15662
611379,372,-78,-17181
611383,830,-151,-16926
611387,276,76,-17484
611391,83,285,-15571
611395,482,431,-17634
611399,192,-60,-15877
611403,261,-34,-15748
611407,372,246,-17456
611411,87,31,-17166
611415,607,63,-15313
611419,48,466,-17499
611423,493,-622,-15287
611427,-25,535,-16988
611431,504,-43,-16538
611435,241,-261,-18152
611439,280,18,-15287
611443,347,529,-16350
611447,529,-434,-17256
611451,46,414,-16289
611455,557,-111,-17466
611459,430,174,-15858
611463,187,76,-16859
611467,80,8,-16414
611471,274,-9,-16412
611475,225,127,-16459
611479,636,241,-16485
611483,-37,-221,-16483
611487,588,590,-16090
611491,349,-179,-16826
611495,491,-84,-16117
611499,404,154,-16611
611503,95,-353,-16926
611507,254,23,-15230
611511,673,-86,-18253
611515,128,-16,-15403
611519,596,179,-17206
611523,109,208,-17273
611527,150,157,-15605
611531,154,29,-17338
611535,552,325,-16623
611539,267,86,-16271
611543,-3,-234,-16396
611547,682,-187,-16615
611551,214,-109,-15755
611555,539,-174,-16805
611559,183,-84,-16610
611563,461,-48,-16022
611567,415,-166,-16848
611571,287,84,-15485
611575,187,-24,-17483
611579,-96,143,-15553
611583,603,120,-17097
611587,606,143,-15715
611591,70,-119,-16753
611595,437,-116,-18190
611599,122,97,-14778
611603,528,176,-16217
611607,674,113,-16874
611611,294,306,-15675
611615,178,259,-16566
611619,261,163,-16351
611623,911,394,-16517
611627,779,-124,-16952
611631,213,31,-15672
611635,206,189,-15879
611639,165,-47,-16744
611643,799,-318,-15965
611648,144,254,-16566
611652,219,-133,-16824
611656,6,-44,-15400
611659,646,-363,-17299
611663,495,-143,-16696
611668,-40,184,-15952
611672,0,320,-16948
611675,72,219,-17322
611679,741,-165,-16542
611683,609,756,-16305
611687,291,289,-16759
611691,-78,191,-15572
611695,857,287,-16865
611700,797,-438,-16235
611704,485,120,-15032
611708,30,-95,-17291
611712,602,-189,-15921
611716,508,17,-16685
611720,171,-385,-16685
611724,420,-53,-17871
611728,49,-25,-15140
611732,541,175,-16194
611736,525,-183,-17949
611740,103,50,-14820
611744,270,211,-16870
611748,126,-23,-16170
611752,343,353,-16235
611756,293,246,-16406
611760,467,59,-16613
611764,51,105,-15360
611767,351,90,-17438
611771,583,-21,-15624
611775,271,-53,-16023
611779,301,-455,-16722
611783,455,-132,-16219
611787,499,163,-17017
611791,548,-220,-16448
611796,495,-177,-15600
611800,425,272,-17518
611804,846,20,-15404
611808,290,160,-16607
611812,116,428,-16052
611816,34,74,-16130
611819,447,-7,-15984
611823,-74,6,-17153
611827,112,118,-14323
611831,-157,267,-18903
611835,688,-3,-15181
611839,470,-34,-17043
611843,120,-129,-17053
611847,371,-256,-15113
611852,354,-260,-18308
611856,168,-171,-14383
611860,788,-81,-16323
611864,443,-128,-15867
611868,317,-250,-17521
611872,477,172,-16131
611876,543,123,-16879
611880,43,118,-16295
611884,574,86,-16087
611888,401,4,-16209
611892,91,269,-17226
611895,67,-61,-15431
611899,458,-126,-17618
611903,456,48,-15539
611907,115,106,-17563
611911,286,7,-17283
611915,469,119,-14688
611919,445,31,-18370
611923,216,-228,-17038
611927,443,-208,-16363
611931,391,-40,-16309
611935,367,186,-16594
611939,400,42,-17308
611943,624,-23,-15813
611947,777,-165,-17528
611951,389,37,-15473
611955,259,230,-15098
611959,308,144,-17596
611963,384,169,-16164
611967,431,56,-16970
611971,-57,454,-16204
611975,145,-103,-16580
611979,473,-48,-16114
611983,383,-68,-16951
611987,628,-65,-16628
611991,-75,105,-15892
611995,358,-158,-17182
611999,475,11,-15848
612003,391,-53,-16124
612007,138,30,-16601
612011,220,186,-15852
612015,495,114,-16630
612019,360,113,-16322
612023,578,42,-16670
612027,406,-15,-15163
612031,467,281,-17215
612035,352,-171,-16386
612039,596,-95,-15817
612043,508,379,-17613
612047,382,-163,-15483
612051,434,487,-15890
612055,355,-153,-17164
612060,414,-95,-15235
612064,348,420,-15146
612068,483,2,-17740
612071,149,207,-15255
612075,411,32,-17538
612079,555,-194,-15249
612083,274,249,-15461
612087,343,418,-17069
612091,371,-237,-15692
612095,616,-42,-16574
612099,268,-47,-16784
612103,172,285,-14843
612107,289,224,-18194
612112,190,417,-15177
612116,546,65,-15739
612119,426,-43,-17461
612123,85,220,-15834
612127,7,2,-16682
612131,853,-163,-16395
612135,557,-9,-15463
612139,217,-29,-17169
612143,356,44,-17386
612147,297,-105,-14936
612151,574,241,-17978
612155,88,-61,-15930
612159,-44,346,-16376
612163,528,374,-17279
612167,648,-143,-15483
612171,442,311,-17380
612175,333,-137,-15869
612179,280,18,-17259
612183,801,-113,-15880
612187,574,-42,-16169
612191,634,-343,-17261
612195,326,-1,-16437
612199,635,93,-16406
612203,637,141,-16655
612207,226,-232,-16470
612211,204,542,-17087
612215,132,431,-15943
612219,324,-96,-17155
612223,53,73,-16159
612227,195,247,-15943
612231,-71,236,-17738
612235,706,-2,-14990
612239,611,238,-16471
612243,336,10,-16107
612247,295,343,-16939
612251,507,-238,-15666
612255,415,6,-17113
612259,545,68,-15509
612263,484,192,-16911
612267,423,17,-16528
612270,180,164,-15646
612274,496,251,-16914
612278,441,-237,-17149
612283,753,140,-15603
612287,101,26,-17072
612290,393,-212,-16685
612295,306,213,-16350
612299,140,-442,-16827
612303,153,61,-15660
612307,359,191,-16800
612311,111,-8,-16979
612314,598,337,-15751
612319,254,484,-16973
612322,388,-335,-15391
612327,280,68,-16471
612331,-173,635,-16927
612335,100,-514,-16887
612339,568,526,-15663
612343,280,-105,-16185
612347,586,2,-16436
612351,527,110,-16865
612355,898,68,-15099
612359,723,-252,-17393
612363,148,-110,-16505
612367,-49,142,-15454
612371,597,136,-17424
612375,202,225,-17348
612379,289,354,-15839
612383,142,768,-16829
612387,143,33,-16655
612391,35,230,-16222
612395,416,252,-15881
612399,109,298,-17180
612403,240,113,-15836
612407,460,23,-15855
612411,578,-121,-16837
612415,29,169,-16378
612419,148,-34,-15616
612423,424,229,-17597
612427,437,93,-16265
612431,244,-86,-17157
612435,348,215,-15612
612439,185,150,-16885
612443,209,37,-16508
612447,210,612,-15745
612451,469,138,-15297
612455,29,462,-16899
612459,841,206,-15881
612463,248,-154,-16811
612467,370,182,-15642
612471,211,-246,-15846
612475,-278,-182,-16944
612479,832,-308,-15990
612483,159,-246,-16117
612487,61,93,-15572
612491,86,109,-17435
612495,168,43,-16046
612499,744,163,-16559
612503,250,390,-16216
612507,200,139,-16347
612511,661,465,-16649
612515,746,-150,-16389
612519,764,508,-16890
612523,572,-111,-15444
612527,217,11,-17226
612531,790,303,-16287
612535,650,-545,-15618
612539,381,-71,-17100
612543,86,-218,-15778
612547,251,-17,-16818
612551,306,211,-15925
612555,275,124,-16675
612559,-19,-62,-17823
612563,111,337,-15105
612567,447,-55,-17414
612571,681,423,-15916
612575,327,414,-15791
612579,-106,-8,-17456
612583,600,-89,-15593
612587,720,73,-17352
612591,193,380,-17106
612595,7,40,-16234
612599,391,361,-16385
612603,401,10,-17169
612607,207,313,-16052
612611,136,-109,-16694
612615,517,333,-16548
612619,302,-6,-16160
612623,239,-580,-16620
612627,296,-89,-16435
612631,871,-260,-16948
612635,178,213,-15062
612639,327,185,-17891
612643,668,16,-15635
612647,251,275,-16544
612651,253,-132,-16839
612655,-40,351,-14917
612659,639,135,-17808
612663,332,-199,-17036
612667,409,183,-15785
612671,496,84,-17781
612675,384,-361,-16688
612679,246,-17,-16710
612683,593,253,-16182
612687,349,-26,-16318
612691,345,242,-16135
612695,122,273,-16935
612699,401,-99,-16232
612703,-44,394,-16370
612707,515,11,-18192
612711,436,-81,-14588
612715,342,110,-18017
612719,271,-175,-16424
612723,619,63,-16020
612727,703,451,-16736
612731,464,-132,-16114
612736,328,176,-16676
612740,362,199,-16206
612744,263,-162,-17081
612748,-40,443,-16125
612752,292,-39,-17694
612756,420,204,-14918
612760,-12,656,-17752
612764,40,-64,-16834
612768,436,276,-16042
612772,347,336,-16911
612776,681,-168,-15675
612780,-212,568,-17098
612784,609,-236,-16362
612788,229,-96,-16182
612792,436,156,-16107
612796,94,12,-15792
612800,278,234,-17384
612804,547,282,-15517
612808,644,-334,-16233
612812,269,127,-17167
612816,337,38,-15540
612820,271,-180,-17506
612824,544,156,-14643
612828,468,109,-16119
612832,267,-42,-15889
612836,313,-60,-17291
612840,385,134,-15274
612844,369,652,-17745
612848,204,-46,-16494
612852,724,-271,-15791
612856,-171,-235,-17850
612860,464,96,-16715
612864,93,187,-16321
612868,-144,298,-16806
612872,255,194,-16971
612876,81,-173,-15268
612880,28,133,-17425
612884,614,-18,-15166
612888,115,413,-16104
612892,575,-184,-17393
612896,309,148,-15615
612901,305,198,-16707
612905,257,446,-16052
612909,514,238,-16539
612913,79,469,-16876
612917,372,46,-16428
612920,936,137,-16989
612924,72,-8,-16234
612928,502,101,-16832
612932,1018,-115,-16157
612936,257,37,-15985
612940,746,-30,-16264
612944,-105,-456,-17273
612949,162,115,-15660
612953,947,-585,-18637
612957,236,196,-17696
612961,283,435,-16096
612965,180,76,-16994
612969,157,228,-17494
612973,-6,185,-15331
612976,55,367,-17413
612980,5,343,-16113
612984,164,-16,-16643
612988,329,267,-17710
612992,484,171,-15881
612996,479,520,-16631
613000,535,-176,-17133
613004,205,-229,-16106
613008,613,-237,-17259
613012,552,-343,-16904
613017,166,-409,-15570
613021,800,-293,-18145
613025,608,229,-15022
613029,324,437,-16981
613033,341,-155,-16945
613037,355,275,-15570
613041,283,652,-16705
613045,186,101,-18317
613049,425,251,-14124
613053,116,314,-18310
613057,118,121,-16922
613061,208,-121,-15908
613065,258,0,-16033
613069,168,152,-18106
613073,236,54,-14220
613077,45,-39,-17576
613081,151,-288,-16325
613085,392,-64,-16184
613089,542,-340,-17073
613093,297,-471,-16480
613097,269,324,-15845
613101,422,-212,-16781
613105,542,-280,-16329
613109,554,412,-16301
613113,332,0,-16304
613117,233,193,-16580
613121,520,658,-14685
613125,659,488,-18050
613129,211,412,-16258
613133,405,-170,-15936
613137,97,-510,-17453
613141,455,352,-15365
613145,342,-287,-16298
613149,-85,-228,-16617
613153,430,-145,-15874
613157,178,-176,-15617
613161,223,-391,-18072
613166,563,-116,-15560
613170,-145,368,-16479
613174,324,119,-17782
613178,639,66,-14894
613182,306,233,-17562
613186,253,-207,-17158
613190,318,387,-15514
613194,561,531,-17648
613198,377,118,-17140
613202,341,600,-16156
613206,327,322,-16656
613210,407,534,-18533
613214,342,454,-14851
613218,408,-310,-16696
613222,240,414,-17525
613226,358,170,-14613
613230,381,214,-15693
613234,318,-434,-17204
613238,160,-185,-15755
613242,441,364,-16853
613246,392,-191,-16219
613250,627,55,-16626
613254,25,643,-19084
613258,844,151,-14543
613262,217,607,-16591
613266,154,-103,-17299
613270,163,239,-15184
613274,574,342,-17344
613278,647,-76,-16445
613282,311,190,-15748
613286,291,141,-15852
613290,687,-452,-16327
613294,426,-445,-17122
613298,230,48,-16591
613302,387,-115,-16790
613306,191,-403,-15789
613311,426,-322,-17416
613315,686,-105,-15030
613319,240,41,-15811
613323,261,42,-16507
613327,475,368,-16608
613331,573,161,-17437
613335,214,639,-15767
613339,-71,257,-16435
613343,313,544,-16716
613347,365,-95,-16837
613351,554,374,-16616
613355,42,-191,-16630
613359,661,61,-16205
613363,47,-114,-16472
613367,550,-60,-15292
613371,638,14,-18017
613375,225,-44,-15507
613379,538,113,-16740
613383,373,10,-17054
613386,473,3,-15145
613390,192,110,-15764
613394,19,213,-17607
613398,-75,935,-15832
613402,388,76,-15357
613406,-1,323,-17541
613410,434,61,-15433
613414,53,293,-15944
613418,-366,369,-18185
613422,945,-286,-16206
613426,554,292,-16853
613430,383,-183,-15633
613434,262,69,-15856
613438,383,-373,-16850
613442,482,-458,-15383
613446,573,-48,-15108
613450,287,-67,-17241
613454,147,-63,-16289
613458,407,-414,-16387
613462,845,90,-16744
613466,187,98,-15360
613470,-227,605,-17327
613474,284,598,-15343
613478,560,545,-16189
613482,88,453,-16536
613486,45,174,-16556
613490,-96,72,-16288
613494,140,100,-16833
613498,433,-216,-17588
613502,481,-34,-15036
613506,-78,-26,-17175
613510,135,-98,-16322
613514,732,74,-16387
613518,307,-11,-15162
613522,342,-199,-17509
613526,366,-254,-16081
613530,325,-99,-17309
613534,233,-225,-15633
613539,866,203,-17355
613543,-46,261,-15994
613547,204,635,-15850
613551,-97,281,-16699
613555,481,298,-15592
613558,693,232,-16947
613562,-366,300,-15876
613567,61,-16,-16744
613570,21,-460,-16882
613574,694,106,-15624
613578,522,-233,-17271
613583,-99,-419,-16293
613587,67,-224,-15787
613591,388,-49,-17202
613595,784,-343,-16846
613599,595,-82,-16507
613603,283,-231,-15739
613607,424,175,-16044
613611,942,234,-16075
613615,839,-210,-17438
613619,182,515,-15992
613623,296,554,-16144
613627,-48,136,-17539
613631,370,222,-16505
613635,367,152,-16752
613639,36,320,-17929
613643,-407,-213,-14607
613647,448,-115,-17674
613651,882,11,-17646
613655,411,-42,-14686
613659,157,345,-17406
613663,-210,74,-15969
613667,534,149,-15832
613671,535,199,-17662
613675,532,213,-14776
613679,-123,292,-16759
613683,182,350,-15769
613687,362,282,-15871
613691,652,93,-17644
613695,546,459,-15388
613699,35,-69,-17592
613703,827,-57,-17624
613707,482,316,-15060
613711,230,-123,-18008
613715,536,297,-16221
613719,545,221,-16634
613723,662,-154,-15853
613727,83,-387,-16733
613731,360,168,-15243
613735,-95,43,-16336
613739,80,-177,-16728
613743,497,-32,-15922
613747,202,-97,-16746
613751,-110,487,-15514
613755,23,870,-17115
613759,184,314,-16388
613763,650,521,-15296
613767,739,222,-17759
613771,-34,480,-14900
613775,591,51,-17110
613779,80,12,-18632
613783,582,-367,-14507
613787,462,-131,-17970
613791,114,11,-16774
613795,246,-61,-15972
613799,570,-168,-18401
613803,402,368,-15541
613807,209,35,-16196
613811,-117,-371,-16128
613815,426,736,-16933
613819,938,-485,-16020
613823,273,85,-16565
613827,-56,142,-15944
613831,343,33,-15876
613835,216,270,-16919
613839,682,5,-15468
613843,817,293,-17112
613847,-323,194,-15273
613851,172,-204,-17585
613855,145,235,-15612
613859,327,182,-17430
613863,115,66,-16168
613867,-125,263,-16753
613871,466,57,-15952
613875,544,-97,-16497
613879,44,701,-16728
613883,133,92,-14545
613887,-65,683,-18133
613891,499,224,-15189
613895,123,429,-16019
613899,199,591,-16420
613903,247,389,-16006
613907,36,927,-16741
613911,851,264,-16632
613915,77,218,-15019
613919,505,529,-17953
613923,408,-79,-14789
613927,596,218,-17854
613931,456,-369,-14462
613935,428,69,-18025
613939,424,-155,-15822
613943,570,360,-17012
613947,320,120,-17547
613951,283,-237,-14543
613955,607,667,-18903
613959,225,-82,-16662
613963,447,-123,-16271
613967,-19,133,-16215
613971,725,92,-15599
613975,222,-44,-17526
613979,382,-96,-15466
613983,-178,-198,-18014
613987,60,-483,-15263
613991,365,215,-16048
613995,164,446,-15612
613999,105,195,-17368
614003,293,-263,-16758
614008,-33,-122,-15632
614012,468,146,-16960
614016,214,266,-16261
614020,323,-456,-15474
614024,101,615,-18021
614028,309,39,-15524
614032,260,-204,-17565
614036,-201,179,-15783
614040,439,188,-17269
614044,-244,314,-17226
614048,371,-863,-17239
614052,434,189,-16573
614056,-17,-40,-16266
614060,188,336,-16886
614064,409,42,-15922
614068,211,60,-17000
614072,424,89,-16938
614076,318,620,-15555
614080,98,-74,-18181
614084,524,-289,-14896
614088,652,371,-17436
614092,744,-171,-16084
614096,-483,157,-17040
614100,233,470,-16234
614104,485,167,-17846
614108,629,176,-16157
614112,-10,731,-16176
614116,-115,-4,-16831
614120,608,345,-15161
614124,726,75,-16552
614128,662,96,-16411
614132,-50,275,-13833
614136,-254,-185,-17488
614140,270,-459,-16684
614144,634,-205,-16223
614148,562,2,-16213
614152,-159,-937,-16798
614156,108,152,-15674
614160,296,471,-16973
614164,797,558,-16676
614168,260,129,-16064
614172,-229,364,-15896
614177,140,202,-16773
614180,396,349,-14540
614185,661,328,-18013
614189,209,298,-16050
614193,168,-56,-15389
614197,404,244,-18192
614201,735,-132,-16211
614205,763,65,-16245
614209,-215,386,-17060
614213,6,-444,-15381
614217,943,166,-17299
614221,208,-451,-17270
614225,292,-344,-16305
614229,-4,231,-16420
614233,-28,-79,-15780
614237,283,653,-16859
614241,253,518,-16267
614245,304,227,-16942
614249,113,130,-17127
614253,69,322,-15923
614257,395,481,-16967
614261,463,-88,-16490
614265,-253,-218,-16676
614269,170,419,-16824
614273,456,439,-15891
614277,589,-380,-17044
614281,845,-105,-15549
614285,477,-466,-17937
614289,302,0,-16085
614293,851,-293,-17688
614297,684,598,-17257
614301,519,417,-16715
614305,361,344,-15590
614309,161,492,-16215
614313,180,-147,-17335
614317,335,493,-15266
614321,345,318,-17525
614325,-140,469,-15111
614329,4,269,-16610
614333,371,47,-16076
614337,503,-132,-17020
614341,-10,-172,-15056
614345,532,446,-18339
614349,304,43,-15702
614353,547,-55,-17841
614357,729,365,-16844
614361,349,-336,-16511
614365,621,-16,-16859
614369,365,20,-15807
614373,517,293,-16684
614377,398,-201,-15764
614381,276,242,-16111
614385,0,881,-16039
614389,449,145,-15569
614393,-64,430,-15925
614397,-174,-243,-14775
614401,-100,-125,-17541
614405,477,365,-17321
614409,84,-167,-15194
614413,-19,-135,-17632
614417,820,30,-16565
614421,497,-18,-16273
614425,85,-520,-17609
614429,298,191,-16879
614433,58,-127,-16418
614437,362,557,-17344
614441,787,131,-16495
614445,377,426,-15774
614449,9,514,-17127
614453,472,325,-16422
614457,346,98,-15674
614461,561,249,-16794
614465,186,71,-17043
614469,327,398,-14828
614473,463,408,-17546
614477,527,-448,-16426
614481,17,288,-15006
614485,-401,-359,-17811
614489,182,-171,-16662
614493,27,76,-15812
614497,-119,154,-17470
614501,68,262,-15779
614505,119,342,-16786
614509,312,119,-15962
614513,284,834,-15032
614517,452,740,-17529
614521,47,75,-16431
614525,174,343,-17282
614529,985,187,-15040
614533,328,-123,-17716
614537,357,-14,-15227
614541,665,14,-15206
614545,540,-180,-18795
614549,595,103,-13619
614553,405,350,-15073
614557,335,-485,-16994
614561,367,420,-16229
614565,111,-177,-16886
614569,438,51,-16243
614573,477,505,-16091
614577,-60,-342,-15645
614581,263,723,-16923
614585,512,24,-16451
614589,415,-29,-16085
614593,-93,19,-16728
614597,295,37,-15239
614601,458,-205,-17523
614605,390,-363,-15325
614609,730,184,-16204
614613,172,-10,-16616
614617,169,-632,-15381
614622,616,600,-18246
614626,341,-289,-14665
614630,-20,221,-17298
614634,281,-122,-15245
614638,361,192,-16913
614642,122,718,-17580
614646,582,218,-15336
614650,71,543,-15924
614654,88,263,-16849
614658,232,102,-15944
614662,-40,88,-17068
614665,266,458,-16122
614669,-32,-54,-16887
614673,117,385,-18345
614677,225,-70,-15941
614681,703,-65,-16978
614685,395,-348,-16937
614689,84,-322,-15830
614693,529,393,-16897
614697,870,-214,-16200
614702,225,2,-16829
614705,168,324,-15983
614709,472,-109,-17740
614713,467,144,-15935
614717,722,419,-16452
614722,409,-56,-17337
614726,213,382,-15861
614730,452,37,-16589
614733,23,349,-18572
614737,619,73,-15250
614741,142,623,-16534
614745,303,-226,-16418
614749,213,-333,-16099
614753,426,-69,-16850
614757,127,-399,-16187
614762,-105,535,-16119
614766,607,-195,-16988
614770,171,516,-16400
614774,453,518,-16084
614778,285,20,-17618
614782,486,105,-14797
614786,677,545,-18018
614790,327,121,-17124
614794,84,457,-16325
614798,425,77,-16179
614802,515,-167,-16894
614806,240,25,-16083
614809,397,131,-16937
614814,147,92,-15538
614817,88,-110,-17120
614821,747,-105,-17206
614826,250,510,-16113
614830,-21,-173,-16824
614834,107,-63,-17496
614838,313,459,-16095
614842,401,-76,-16288
614846,-81,-370,-16278
614850,373,-237,-17503
614854,513,235,-14511
614858,323,342,-17643
614862,465,62,-16241
614866,437,45,-15144
614870,222,-120,-17034
614874,424,-8,-16613
614878,346,116,-14761
614882,-330,-14,-17447
614886,619,187,-16886
614890,216,57,-15807
614894,407,-108,-16583
614898,278,-148,-16585
614902,278,545,-16221
614906,113,116,-16332
614910,598,-86,-15844
614914,516,581,-16062
614918,183,310,-16997
614922,146,-113,-15316
614926,546,478,-16995
614930,431,-242,-14394
614934,118,339,-18595
614938,615,366,-15419
614942,510,-163,-16499
614946,252,262,-17130
614950,928,-11,-16017
614954,739,-42,-17380
614959,775,-305,-16545
614963,-248,34,-15974
614967,347,324,-16750
614971,415,326,-16764
614975,144,-92,-17198
614979,434,280,-16145
614983,49,-91,-15896
614987,-217,151,-14498
614991,317,763,-17696
614995,413,-444,-14914
614999,232,307,-16866
615003,179,203,-15117
615007,406,81,-15447
615011,42,461,-17122
615015,447,328,-15689
615019,338,-219,-15921
615023,706,-77,-17044
615027,329,-34,-16401
615031,494,121,-18502
615035,491,88,-15319
615039,440,106,-17363
615043,655,267,-16515
615047,264,-56,-15843
615051,484,265,-18269
615055,611,196,-15015
615059,323,297,-16582
615063,35,133,-16532
615067,230,352,-16083
615071,406,-501,-15978
615075,-90,522,-16989
615079,185,-2,-16054
615083,551,95,-16768
615087,-22,204,-16108
615091,67,-101,-18041
615095,228,910,-15181
615099,382,-91,-16923
615103,583,156,-16067
615107,988,64,-16584
615111,416,-81,-16602
615115,464,500,-16859
615119,497,475,-15876
615123,446,-45,-16264
615127,261,134,-16479
615131,86,289,-16490
615135,836,172,-16116
615139,289,372,-16590
615143,305,-118,-16135
615147,600,573,-17284
615151,-242,17,-15278
615155,326,-302,-16418
615159,541,454,-16240
615163,112,41,-16706
615167,-46,76,-16305
615171,387,131,-16401
615175,332,-106,-16892
615179,712,691,-16710
615183,-66,-123,-17018
615187,121,419,-16985
615191,-104,193,-16307
615195,412,60,-17241
615199,604,473,-17422
615203,216,-232,-15648
615207,363,89,-16497
615211,307,-413,-16074
615215,414,-87,-16425
615219,607,118,-15833
615223,685,276,-17196
615227,182,484,-15491
615231,190,201,-16267
615235,60,159,-16634
615239,610,-144,-15680
615243,320,525,-16085
615247,158,75,-16269
615251,343,310,-15658
615255,270,-398,-16909
615259,298,-89,-15969
615263,293,233,-15859
615267,368,148,-16492
615271,478,66,-16940
615275,671,226,-16817
615279,219,-119,-16376
615283,527,363,-16769
615287,268,-94,-16377
615291,671,-164,-16563
615295,27,114,-16570
615299,153,-278,-15600
615303,368,-506,-17492
615307,240,231,-16158
615311,431,-65,-16829
615315,347,538,-16578
615319,620,-269,-15840
615323,38,-40,-17285
615327,775,490,-15818
615331,425,-398,-17202
615335,256,-277,-16172
615339,418,777,-16481
615343,91,-106,-16710
615347,259,469,-15651
615351,287,349,-16157
615355,363,-72,-16599
615359,-24,442,-16427
615363,807,-414,-16957
615367,-58,328,-16425
615371,-115,117,-16554
615375,363,10,-16341
615379,581,475,-16819
615383,415,-550,-15771
615387,-59,534,-17675
615391,376,551,-15635
615396,766,293,-15827
615400,302,-52,-17950
615404,622,392,-15150
615408,313,186,-16753
615412,681,19,-17238
615415,807,14,-14587
615419,168,210,-17957
615423,127,-248,-15579
615428,360,17,-16551
615431,-50,149,-16403
615435,384,167,-16815
615439,184,-106,-15262
615444,148,-202,-17911
615448,272,31,-16721
615452,533,104,-16154
615456,380,26,-16380
615459,370,781,-15834
615463,168,196,-17859
615467,359,300,-16140
615471,827,384,-17659
615475,310,271,-15412
615479,196,-51,-15860
615483,457,-22,-16312
615487,706,35,-16866
615491,632,190,-15909
615495,21,-341,-16925