timestamp,accX,accY,accZ
484135,366,-36,-16579
484139,412,-16,-16381
484143,437,-53,-16569
484147,455,-8,-16333
484151,412,-68,-16474
484155,428,-29,-16457
484159,397,-95,-16341
484163,370,-12,-16454
484167,414,0,-16491
484171,397,-1,-16388
484175,353,23,-16482
484179,367,-19,-16409
484183,393,7,-16387
484187,350,-33,-16473
484191,330,-31,-16443
484195,343,-54,-16424
484199,337,-41,-16397
484203,337,-29,-16462
484207,348,-75,-16426
484211,364,-57,-16446
484215,338,-74,-16502
484219,425,-29,-16329
484223,377,-38,-16461
484227,408,-66,-16445
484231,452,-35,-16406
484235,459,-1,-16474
484239,459,-12,-16473
484243,420,-7,-16357
484247,433,9,-16567
484250,407,12,-16395
484254,412,-39,-16394
484258,327,5,-16494
484262,360,-62,-16442
484266,347,-28,-16447
484270,283,-50,-16499
484274,338,-31,-16499
484278,337,-35,-16424
484282,373,-16,-16198
484286,352,-8,-16447
484290,370,12,-16429
484294,368,-52,-16383
484298,362,-25,-16515
484302,408,-6,-16332
484306,448,-50,-16455
484310,440,14,-16482
484314,380,-46,-16336
484318,457,-36,-16534
484322,388,-24,-16343
484326,426,-9,-16368
484330,358,-5,-16485
484334,395,-16,-16379
484338,355,-52,-16492
484342,311,-73,-16453
484346,311,-64,-16476
484350,332,-104,-16458
484354,322,-75,-16403
484358,340,-24,-16443
484362,353,-78,-16467
484366,438,-22,-16513
484370,445,-27,-16379
484374,419,6,-16505
484378,440,-19,-16367
484382,461,-35,-16576
484386,484,-5,-16374
484389,480,33,-16546
484393,471,28,-16366
484397,410,-7,-16334
484401,472,7,-16540
484405,379,-41,-16422
484409,344,-134,-16400
484413,340,-94,-16539
484417,311,-98,-16446
484421,301,-102,-16447
484425,263,-92,-16508
484429,295,-63,-16417
484433,247,-68,-16504
484437,268,-10,-16459
484441,278,44,-16413
484445,327,21,-16615
484449,342,45,-16477
484453,352,23,-16459
484457,461,-13,-16572
484461,490,-39,-16390
484465,508,-30,-16488
484469,447,-33,-16537
484473,491,-106,-16404
484477,474,-63,-16455
484481,266,-73,-16422
484485,413,-65,-16478
484489,406,-75,-16503
484493,384,-22,-16359
484497,365,-4,-16580
484501,316,42,-16477
484505,270,-240,-16452
484509,271,-12,-16422
484513,267,-5,-16433
484517,287,10,-16468
484521,308,-17,-16411
484525,333,-49,-16488
484529,398,-69,-16403
484533,383,-51,-16382
484537,427,-147,-16566
484541,356,-63,-16378
484545,436,-70,-16458
484549,421,-77,-16434
484553,462,-36,-16461
484557,429,-52,-16397
484561,466,-24,-16559
484565,418,47,-16611
484569,491,-231,-16280
484573,427,2,-16438
484577,394,-21,-16487
484581,387,-17,-16444
484585,372,-37,-16462
484589,407,-52,-16439
484593,321,-49,-16401
484597,289,-61,-16356
484601,344,221,-16568
484605,384,1,-16467
484609,366,-77,-16331
484613,291,-40,-16595
484617,296,-116,-16409
484621,332,-26,-16442
484625,372,-80,-16456
484629,348,-30,-16480
484633,363,-16,-16344
484637,406,-41,-16476
484641,461,1,-16403
484645,417,37,-16478
484649,399,-24,-16404
484653,422,24,-16544
484657,481,1,-16461
484660,497,-56,-16489
484664,432,-43,-16438
484668,446,-6,-16478
484672,411,-45,-16363
484676,431,-74,-16586
484680,415,-104,-16340
484684,373,-112,-16408
484688,297,-90,-16563
484692,327,-75,-16324
484696,356,-55,-16535
484700,352,11,-16489
484704,341,-48,-16373
484708,309,5,-16424
484712,339,35,-16464
484716,284,-5,-16512
484720,346,0,-16492
484724,341,-24,-16425
484728,395,-19,-16539
484732,393,-51,-16354
484736,446,-27,-16482
484740,406,-55,-16489
484744,423,-38,-16408
484748,497,-32,-16478
484752,465,-48,-16401
484756,495,-88,-16536
484760,424,-33,-16405
484764,463,-29,-16464
484768,435,-48,-16477
484772,391,-13,-16404
484776,392,-50,-16448
484780,339,62,-16481
484784,324,-44,-16414
484788,295,0,-16478
484791,272,-8,-16548
484795,287,18,-16327
484799,276,-30,-16564
484803,297,-51,-16407
484807,290,-6,-16411
484811,312,-59,-16553
484815,360,-48,-16321
484819,397,-39,-16420
484823,441,-132,-16497
484827,469,-91,-16369
484831,473,-59,-16477
484835,519,4,-16454
484839,552,-32,-16416
484843,516,4,-16492
484847,498,-27,-16419
484851,448,11,-16392
484855,437,15,-16519
484859,389,-31,-16350
484863,376,-34,-16385
484867,298,-53,-16490
484871,256,-35,-16509
484875,312,-32,-16327
484879,241,-40,-16557
484883,319,-121,-16260
484887,282,-102,-16590
484891,319,-158,-16360
484895,345,-85,-16466
484899,379,-69,-16442
484903,376,-79,-16397
484907,429,-23,-16442
484911,449,-31,-16445
484915,480,-23,-16434
484919,529,14,-16492
484923,488,-7,-16411
484927,498,18,-16298
484931,509,-2,-16587
484935,472,-44,-16409
484939,380,38,-16487
484943,411,-2,-16459
484947,355,-28,-16514
484951,235,-12,-16367
484955,329,-55,-16496
484959,278,-13,-16404
484963,192,-71,-16412
484967,250,-71,-16465
484971,265,-48,-16396
484975,291,-76,-16507
484979,226,-67,-16301
484983,264,189,-16586
484987,383,-8,-16477
484991,398,-37,-16458
484995,459,4,-16424
484998,488,14,-16431
485002,481,50,-16404
485006,472,18,-16450
485010,520,27,-16441
485014,521,15,-16410
485018,488,-35,-16492
485022,428,4,-16312
485026,438,-21,-16379
485030,442,-58,-16558
485034,401,-81,-16403
485038,333,-24,-16510
485042,271,-97,-16414
485046,306,-51,-16423
485050,325,-92,-16412
485054,272,-108,-16511
485058,247,-92,-16514
485062,264,-57,-16343
485066,359,-34,-16577
485070,312,-36,-16475
485074,312,-7,-16387
485078,358,-9,-16513
485082,394,11,-16425
485086,402,34,-16403
485090,439,-62,-16457
485094,494,-34,-16409
485098,501,-39,-16554
485102,551,-13,-16582
485106,553,-35,-16317
485110,486,-33,-16429
485114,446,4,-16467
485117,426,-4,-16398
485121,379,-9,-16590
485125,345,-30,-16391
485129,307,-5,-16305
485133,274,8,-16594
485137,215,17,-16487
485141,190,-2,-16368
485145,200,8,-16558
485149,224,-45,-16404
485153,242,-35,-16463
485157,255,-46,-16459
485161,307,-128,-16540
485165,445,-18,-16336
485169,496,-83,-16544
485173,538,-76,-16411
485177,489,18,-16492
485181,560,-69,-16380
485185,539,-16,-16512
485189,542,-31,-16517
485193,547,-58,-16608
485197,453,-21,-16361
485201,418,-31,-16471
485205,446,-10,-16538
485209,293,5,-16386
485213,256,-26,-16386
485217,240,-1,-16494
485220,228,-14,-16489
485224,229,-49,-16365
485228,222,-30,-16538
485232,486,-50,-16424
485236,254,-56,-16462
485240,343,-46,-16588
485244,340,-61,-16339
485248,389,-54,-16522
485252,463,-91,-16508
485256,468,-32,-16377
485260,449,-24,-16488
485264,516,-52,-16431
485268,521,-60,-16387
485272,483,42,-16458
485276,507,-5,-16365
485280,414,41,-16540
485284,495,27,-16307
485288,355,2,-16647
485292,332,15,-16423
485296,298,-1,-16551
485300,259,-21,-16366
485304,252,-25,-16338
485308,242,-65,-16506
485312,207,-68,-16425
485316,223,-60,-16454
485320,302,-89,-16402
485324,336,-132,-16535
485328,344,-117,-16362
485332,385,-61,-16561
485336,440,-8,-16586
485340,541,53,-16378
485344,548,31,-16524
485348,543,82,-16464
485352,570,36,-16370
485356,612,1,-16464
485359,546,-23,-16496
485363,472,-23,-16436
485367,357,-74,-16363
485371,358,-86,-16627
485375,290,-157,-16430
485380,285,-106,-16478
485384,164,-84,-16393
485388,161,-115,-16406
485392,239,21,-16362
485396,203,-61,-16553
485400,206,27,-16306
485404,193,8,-16507
485407,233,21,-16509
485411,298,255,-16401
485415,398,57,-16473
485419,401,47,-16424
485423,440,69,-16448
485427,506,-48,-16437
485431,526,-32,-16516
485435,583,15,-16352
485439,557,-115,-16589
485443,534,-114,-16252
485447,546,-67,-16588
485451,571,-57,-16292
485455,422,-87,-16589
485459,335,-14,-16575
485463,347,-58,-16335
485467,348,11,-16511
485471,253,-5,-16357
485475,205,4,-16408
485479,238,14,-16460
485483,245,-48,-16393
485487,207,-38,-16489
485491,239,-42,-16471
485495,244,-76,-16476
485499,303,-33,-16460
485503,340,-72,-16469
485507,373,-45,-16377
485511,435,-62,-16529
485515,516,-17,-16334
485519,477,-52,-16533
485523,491,9,-16591
485527,573,13,-16232
485531,557,19,-16415
485535,524,-42,-16514
485539,553,37,-16374
485543,515,-24,-16557
485547,395,15,-16370
485551,396,-4,-16424
485555,405,-43,-16495
485559,309,-44,-16386
485563,267,-70,-16455
485567,283,-58,-16383
485571,195,-90,-16517
485575,263,-86,-16495
485579,238,-75,-16388
485583,280,-73,-16510
485587,250,-5,-16382
485590,406,-50,-16446
485594,360,2,-16457
485598,444,28,-16403
485602,454,42,-16289
485606,496,56,-16569
485610,508,-8,-16175
485614,494,-1,-16473
485618,493,3,-16491
485622,765,-53,-16419
485626,481,-64,-16485
485630,467,-35,-16431
485634,474,-41,-16260
485638,379,-81,-16583
485642,332,-32,-16332
485646,316,-32,-16530
485650,314,-48,-16367
485654,222,-43,-16432
485658,244,-56,-16480
485662,284,-26,-16368
485666,276,-11,-16592
485670,303,-40,-16332
485674,307,29,-16406
485678,325,53,-16416
485682,339,27,-16492
485685,339,8,-16313
485689,404,-65,-16621
485693,455,-29,-16425
485697,451,2,-16458
485701,442,-68,-16462
485705,426,-74,-16411
485709,467,-87,-16537
485713,487,-68,-16516
485717,442,-86,-16396
485721,442,-96,-16463
485725,493,-71,-16414
485729,453,0,-16428
485733,331,-41,-16519
485737,308,29,-16383
485741,326,25,-16444
485745,320,52,-16462
485749,263,27,-16469
485753,251,22,-16407
485757,253,44,-16509
485760,272,-76,-16386
485764,257,-112,-16468
485769,274,-133,-16419
485773,358,-163,-16494
485777,349,-132,-16427
485781,371,-113,-16563
485785,448,-149,-16316
485789,485,-33,-16485
485793,539,16,-16444
485797,492,-9,-16312
485801,560,52,-16530
485805,454,63,-16393
485809,494,43,-16570
485813,466,110,-16334
485817,405,42,-16401
485820,410,4,-16538
485824,340,-41,-16342
485828,351,-30,-16405
485832,303,-86,-16482
485836,230,-128,-16316
485840,190,-142,-16529
485845,299,-140,-16377
485849,243,-93,-16416
485853,279,-25,-16490
485857,317,-32,-16417
485861,351,27,-16402
485865,356,31,-16493
485869,481,12,-16372
485873,485,32,-16478
485876,424,70,-16520
485880,581,26,-16435
485884,546,-231,-16480
485888,538,15,-16498
485892,501,1,-16443
485896,468,-27,-16446
485900,463,-46,-16524
485904,428,-104,-16409
485908,363,-57,-16480
485912,280,-104,-16485
485916,273,-133,-16425
485920,124,36,-16462
485924,226,-40,-16411
485928,190,-44,-16436
485932,192,-57,-16449
485936,233,-11,-16382
485940,324,-20,-16517
485944,393,20,-16454
485948,391,8,-16397
485952,470,43,-16463
485956,501,-24,-16455
485960,520,-47,-16444
485964,519,-8,-16363
485968,535,-27,-16561
485972,514,-56,-16426
485976,508,-31,-16490
485980,490,-44,-16474
485984,421,-82,-16385
485988,347,-51,-16514
485992,378,-45,-16396
485996,308,-30,-16429
486000,297,-44,-16485
486004,224,-55,-16425
486008,251,28,-16437
486012,256,-22,-16442
486016,266,-3,-16474
486020,294,-22,-16376
486024,294,-9,-16558
486028,275,13,-16518
486032,369,-23,-16351
486036,407,-18,-16473
486040,414,-33,-16394
486044,429,-69,-16479
486048,504,-29,-16369
486052,561,-80,-16532
486056,495,-34,-16357
486060,543,-78,-16508
486064,568,-70,-16449
486068,528,-80,-16484
486072,535,-93,-16343
486076,484,-14,-16539
486080,404,-33,-16362
486084,384,15,-16548
486088,328,13,-16472
486092,285,54,-16439
486096,192,35,-16470
486099,508,43,-16492
486103,212,12,-16307
486107,208,-16,-16538
486111,207,-46,-16405
486115,313,-55,-16457
486119,306,-167,-16590
486123,328,-127,-16319
486127,408,-108,-16542
486132,426,-167,-16450
486136,433,-82,-16355
486140,471,-65,-16577
486144,466,-62,-16503
486148,543,23,-16351
486152,497,11,-16466
486156,515,24,-16540
486159,489,70,-16352
486163,483,65,-16388
486167,402,17,-16494
486171,400,41,-16431
486175,407,16,-16400
486179,316,19,-16571
486183,311,-25,-16513
486187,320,-72,-16379
486191,236,-102,-16632
486195,308,-131,-16277
486199,307,-151,-16504
486203,289,-104,-16520
486207,328,-98,-16419
486211,334,-81,-16428
486215,379,-64,-16534
486219,385,-46,-16371
486223,413,9,-16422
486227,428,16,-16381
486231,506,8,-16393
486235,475,59,-16466
486239,526,13,-16475
486243,511,41,-16275
486247,526,22,-16632
486251,484,-9,-16228
486254,463,-22,-16418
486258,418,-30,-16520
486262,420,-77,-16289
486266,410,-75,-16545
486270,298,-48,-16403
486274,318,-116,-16211
486279,284,-55,-16639
486282,257,-114,-16344
486287,229,-34,-16431
486291,265,-33,-16464
486295,318,-49,-16463
486299,295,40,-16415
486303,344,26,-16437
486306,397,30,-16500
486310,428,-12,-16404
486314,438,5,-16336
486318,434,-76,-16585
486322,483,-61,-16337
486326,453,-79,-16300
486330,507,-73,-16627
486334,441,-59,-16275
486338,464,-11,-16247
486342,391,-31,-16658
486346,380,-13,-16178
486350,418,27,-16369
486354,250,-36,-16568
486358,320,-24,-16336
486362,274,9,-16552
486366,311,16,-16464
486370,329,5,-16182
486374,293,30,-16705
486378,280,-84,-16512
486382,407,-80,-16413
486386,427,-51,-16478
486390,465,-117,-16353
486394,386,-79,-16502
486398,452,-31,-16413
486402,502,-66,-16464
486406,465,-29,-16468
486410,429,39,-16383
486414,451,-10,-16423
486418,435,16,-16456
486422,431,-31,-16446
486426,383,33,-16453
486430,268,32,-16630
486434,309,1,-16334
486437,380,-8,-16499
486441,357,-25,-16472
486445,269,-102,-16326
486449,278,-20,-16465
486453,307,-151,-16405
486458,300,-115,-16531
486462,301,-110,-16543
486466,370,-72,-16270
486470,335,-55,-16613
486474,382,-77,-16426
486478,473,-62,-16473
486482,433,-68,-16606
486486,393,-78,-16290
486490,463,-60,-16606
486494,548,36,-16604
486498,535,3,-16302
486502,483,30,-16626
486506,431,45,-16334
486509,408,40,-16499
486513,455,40,-16507
486517,417,13,-16439
486521,334,-53,-16421
486525,328,-121,-16443
486529,332,-107,-16442
486533,294,-160,-16474
486537,322,-107,-16434
486542,284,-127,-16470
486546,307,-105,-16443
486550,340,-63,-16469
486554,379,-41,-16433
486558,380,20,-16425
486562,438,250,-16520
486566,434,41,-16387
486570,458,31,-16551
486573,541,14,-16378
486577,438,20,-16520
486581,467,37,-16440
486585,471,10,-16463
486589,497,-59,-16464
486593,447,-44,-16425
486597,404,-111,-16329
486601,369,-99,-16514
486605,343,-89,-16443
486609,335,-154,-16355
486613,225,-77,-16582
486617,261,-76,-16190
486621,200,37,-16531
486625,278,41,-16360
486629,270,14,-16292
486633,270,39,-16569
486637,300,-7,-16411
486641,375,34,-16443
486645,405,35,-16501
486649,461,-75,-16407
486653,458,-25,-16481
486657,548,-58,-16414
486661,532,-106,-16382
486665,502,-73,-16497
486669,523,-63,-16424
486673,498,-95,-16441
486677,452,-35,-16459
486681,453,-48,-16344
486685,432,6,-16537
486689,351,18,-16429
486693,354,-13,-16381
486697,304,27,-16569
486701,254,33,-16405
486704,202,-251,-16421
486709,219,-2,-16537
486712,223,-62,-16399
486716,280,-19,-16501
486720,244,-111,-16623
486725,259,-134,-16314
486729,299,-99,-16490
486733,421,-67,-16429
486737,398,-43,-16462
486741,444,-20,-16463
486745,442,-5,-16491
486749,522,-30,-16418
486752,563,62,-16485
486756,565,-42,-16406
486760,530,49,-16494
486764,474,-4,-16500
486768,482,15,-16397
486772,465,-38,-16477
486776,399,-55,-16321
486780,332,-14,-16658
486784,291,-26,-16580
486788,309,-10,-16354
486792,237,-54,-16699
486796,230,-54,-16332
486800,189,-37,-16411
486804,219,-79,-16630
486808,240,-25,-16265
486812,283,-54,-16522
486816,320,-57,-16553
486820,377,-83,-16349
486824,467,-19,-16415
486828,502,-26,-16538
486832,554,-34,-16349
486836,560,32,-16451
486840,549,-7,-16521
486844,631,10,-16448
486848,554,22,-16416
486852,535,38,-16545
486856,459,10,-16417
486860,426,-252,-16570
486864,416,-20,-16400
486868,360,-64,-16375
486872,294,-11,-16504
486876,209,-96,-16621
486880,282,-103,-16262
486884,167,-76,-16659
486888,163,-113,-16457
486892,146,-65,-16398
486896,211,-76,-16527
486900,487,-50,-16452
486904,361,-3,-16354
486908,330,21,-16474
486912,358,31,-16472
486916,512,6,-16401
486920,516,56,-16573
486923,504,-31,-16327
486927,557,20,-16499
486931,552,-80,-16380
486935,572,-38,-16477
486939,580,-72,-16575
486943,542,-93,-16359
486947,419,-90,-16394
486952,472,-63,-16526
486956,388,-112,-16370
486960,329,-31,-16506
486964,282,-34,-16431
486968,304,5,-16445
486971,284,11,-16522
486975,229,-1,-16417
486979,267,56,-16364
486983,252,7,-16538
486987,272,19,-16556
486991,289,-7,-16302
486995,294,-38,-16544
486999,344,-75,-16439
487003,403,-37,-16344
487007,426,-69,-16528
487011,358,-101,-16438
487015,588,-99,-16350
487019,525,-65,-16490
487023,495,-30,-16402
487027,580,-2,-16461
487031,504,-26,-16583
487035,514,2,-16324
487039,493,12,-16424
487043,429,47,-16457
487047,382,48,-16396
487051,329,37,-16519
487054,297,245,-16340
487058,253,6,-16488
487062,276,-51,-16397
487066,256,-106,-16456
487070,253,-73,-16467
487074,244,-118,-16421
487079,307,-148,-16469
487083,338,-71,-16471
487087,335,-87,-16392
487091,360,-90,-16471
487095,387,-35,-16442
487099,416,-83,-16427
487103,437,25,-16537
487107,426,55,-16383
487111,496,115,-16477
487115,477,78,-16433
487118,488,46,-16473
487122,446,66,-16457
487126,427,11,-16407
487130,352,-52,-16424
487134,361,-4,-16497
487138,312,-63,-16371
487142,308,-98,-16282
487146,274,-75,-16588
487150,284,-87,-16318
487154,306,-82,-16497
487158,276,-103,-16423
487162,355,-42,-16478
487166,353,-59,-16430
487170,394,-32,-16512
487174,422,-43,-16388
487178,487,23,-16532
487182,492,23,-16422
487186,471,49,-16439
487190,526,36,-16518
487194,399,-9,-16515
487198,458,2,-16356
487202,408,-14,-16554
487206,397,-74,-16310
487210,357,-14,-16510
487214,390,-60,-16420
487218,377,-33,-16302
487222,316,-42,-16585
487226,305,-89,-16515
487230,329,-36,-16356
487234,282,-42,-16537
487238,326,-84,-16508
487242,335,216,-16404
487246,330,-25,-16535
487250,383,-11,-16405
487254,331,-5,-16424
487258,327,-23,-16379
487262,360,22,-16575
487266,368,5,-16311
487269,425,1,-16498
487273,411,-17,-16507
487277,471,-44,-16416
487281,466,2,-16410
487285,429,-57,-16558
487289,491,-39,-16371
487293,441,-49,-16487
487297,414,-56,-16389
487301,434,-65,-16410
487305,395,-53,-16601
487309,377,-111,-16459
487313,356,-19,-16299
487317,300,5,-16438
487321,324,-94,-16415
487325,335,28,-16417
487329,340,16,-16533
487333,320,4,-16406
487337,325,15,-16339
487340,372,55,-16552
487344,402,44,-16418
487348,354,-16,-16414
487352,399,-40,-16476
487356,386,-27,-16430
487360,441,-76,-16592
487364,393,-45,-16345
487368,435,-82,-16478
487372,403,-71,-16402
487376,431,-84,-16441
487380,444,-62,-16413
487384,387,-15,-16519
487388,392,-61,-16465
487392,415,21,-16410
487396,399,10,-16534
487400,426,-21,-16409
487404,287,20,-16408
487408,301,-30,-16419
487412,318,8,-16414
487416,327,23,-16360
487420,351,-46,-16485
487424,263,-67,-16483
487428,372,-48,-16450
487432,397,-104,-16437
487436,332,-77,-16391
487440,359,-114,-16383
487444,481,-53,-16523
487448,329,-71,-16334
487452,402,1,-16396
487456,497,36,-16593
487460,387,20,-16308
487464,460,62,-16591
487467,454,-34,-16215
487471,483,59,-16174
487475,441,21,-16649
487479,368,-106,-16494
487483,329,-10,-16297
487487,370,-30,-16620
487492,292,-134,-16486
487496,322,-29,-16335
487500,301,-92,-16509
487504,312,-104,-16470
487508,283,-13,-16384
487512,294,-62,-16503
487516,299,11,-16461
487520,325,48,-16389
487523,388,-77,-16355
487527,362,-15,-16608
487531,381,-31,-16335
487535,422,-38,-16627
487539,400,7,-16294
487543,471,-34,-16344
487547,465,-77,-16468
487551,502,27,-16389
487555,479,-35,-16478
487559,510,-72,-16479
487563,510,-47,-16422
487567,469,-28,-16536
487571,378,12,-16288
487575,357,-45,-16436
487579,335,-73,-16569
487583,372,30,-16291
487587,336,-99,-16477
487591,242,38,-16486
487595,301,-150,-16311
487599,296,23,-16501
487603,258,-43,-16167
487607,328,-51,-16491
487611,278,27,-16371
487615,254,-19,-16440
487619,344,-54,-16413
487623,405,-53,-16509
487627,410,-43,-16481
487631,348,2,-16336
487635,545,-59,-16415
487639,467,32,-16514
487643,479,-92,-16380
487647,497,26,-16668
487651,424,-36,-16384
487655,459,4,-16268
487659,385,-8,-16713
487663,459,-1,-16197
487667,382,-28,-16240
487671,300,15,-16561
487674,331,5,-16466
487678,386,-37,-16376
487682,308,-136,-16519
487686,280,-89,-16416
487690,275,-82,-16397
487694,291,-152,-16481
487698,374,-61,-16590
487702,362,-98,-16260
487706,275,-122,-16583
487711,326,83,-16550
487714,440,-69,-16294
487718,427,77,-16617
487722,433,48,-16211
487726,406,42,-16529
487730,516,-17,-16624
487734,509,5,-16228
487738,409,-25,-16379
487742,421,-100,-16540
487746,454,-84,-16251
487750,427,-65,-16442
487754,462,-50,-16532
487758,301,36,-16187
487762,381,-134,-16628
487766,329,-99,-16370
487770,417,-5,-16525
487774,377,-73,-16389
487778,257,-33,-16451
487782,269,54,-16301
487786,334,-59,-16523
487790,355,56,-16563
487794,344,-41,-16251
487798,302,0,-16557
487802,276,-6,-16414
487806,359,-65,-16579
487810,459,-116,-16462
487814,336,-106,-16359
487818,388,-59,-16610
487822,488,-160,-16224
487826,446,54,-16626
487830,455,13,-16243
487834,360,48,-16122
487838,389,47,-16771
487842,479,45,-16650
487846,344,-64,-16157
487850,374,69,-16711
487853,322,-98,-16245
487857,358,-64,-16563
487862,402,-56,-16809
487866,391,-169,-16193
487870,339,-39,-16615
487874,335,-82,-16593
487878,355,-90,-16263
487882,428,102,-16645
487886,397,-20,-16489
487890,402,18,-16414
487894,350,61,-16525
487898,372,-33,-16450
487902,426,25,-16464
487905,397,6,-16441
487909,393,-55,-16509
487913,442,-49,-16557
487917,429,-122,-16332
487921,455,-112,-16688
487925,348,-98,-16374
487929,313,-167,-16498
487933,385,-104,-16421
487938,395,-141,-16305
487942,348,-57,-16565
487946,390,-16,-16296
487950,370,-38,-16292
487954,438,55,-16603
487958,386,44,-16417
487961,440,25,-16395
487965,370,103,-16543
487969,454,0,-16362
487973,441,23,-16492
487977,406,19,-16693
487981,452,-92,-16283
487985,407,-2,-16476
487989,375,-111,-16386
487993,469,-111,-16420
487997,373,-105,-16491
488001,388,-185,-16303
488005,403,-130,-16574
488009,399,-79,-16427
488013,407,-93,-16509
488017,385,-51,-16381
488021,305,13,-16443
488025,359,255,-16487
488029,264,108,-16471
488033,310,68,-16411
488037,301,44,-16516
488041,356,93,-16379
488045,290,43,-16451
488049,392,-13,-16498
488053,331,-17,-16410
488057,383,-88,-16435
488061,427,-74,-16567
488065,415,-181,-16330
488069,485,-141,-16562
488073,458,-138,-16405
488077,449,-137,-16483
488081,424,-25,-16435
488085,433,-51,-16494
488089,403,223,-16319
488093,405,63,-16473
488097,360,30,-16398
488101,336,55,-16491
488105,337,30,-16602
488109,314,23,-16392
488113,287,8,-16514
488117,271,-45,-16466
488121,342,-60,-16320
488125,267,-111,-16369
488129,302,-73,-16527
488133,430,-84,-16374
488137,439,-98,-16476
488141,400,-90,-16475
488145,442,-82,-16620
488149,496,-95,-16599
488153,457,-4,-16277
488157,398,6,-16413
488161,409,67,-16504
488165,411,53,-16305
488169,399,77,-16556
488173,376,92,-16361
488177,346,59,-16338
488181,328,66,-16482
488185,355,-94,-16423
488189,343,-61,-16508
488193,332,-156,-16368
488197,344,-116,-16402
488201,367,-174,-16435
488205,381,-126,-16450
488209,385,-119,-16410
488213,387,-32,-16524
488217,378,-8,-16373
488221,386,36,-16462
488225,456,80,-16412
488229,444,65,-16484
488233,416,108,-16412
488237,392,101,-16448
488241,429,50,-16507
488245,400,39,-16387
488248,401,-1,-16421
488252,332,-86,-16490
488256,371,-107,-16394
488260,375,-163,-16416
488265,339,-184,-16526
488269,339,-200,-16346
488273,319,-141,-16417
488277,318,-117,-16480
488281,340,-66,-16386
488285,343,-23,-16467
488289,337,29,-16492
488293,360,90,-16408
488297,396,85,-16451
488301,415,88,-16483
488305,437,79,-16383
488309,421,78,-16490
488313,466,-21,-16555
488317,439,-61,-16315
488321,455,-55,-16558
488325,425,-160,-16492
488329,440,-96,-16377
488333,415,-158,-16558
488337,387,-101,-16583
488341,381,-78,-16308
488345,334,-50,-16599
488349,356,-44,-16409
488353,325,-7,-16437
488357,272,28,-16544
488361,281,66,-16371
488365,302,65,-16488
488369,312,37,-16560
488373,342,15,-16356
488376,393,16,-16404
488380,396,-36,-16534
488384,410,-43,-16362
488388,438,-49,-16504
488392,458,-74,-16374
488396,451,-91,-16394
488400,429,-97,-16459
488404,460,-130,-16460
488408,466,-53,-16374
488412,440,-75,-16544
488416,427,-48,-16346
488421,400,29,-16417
488424,368,13,-16487
488428,379,76,-16433
488432,357,26,-16425
488436,327,68,-16487
488440,296,-13,-16427
488444,305,12,-16414
488448,312,-47,-16463
488452,307,-47,-16394
488456,327,-95,-16496
488460,347,-96,-16485
488464,341,-109,-16397
488468,399,-106,-16475
488472,404,-74,-16361
488476,442,-63,-16488
488480,419,-73,-16455
488484,452,-51,-16427
488488,472,30,-16448
488492,433,-1,-16392
488496,429,30,-16467
488500,434,41,-16375
488504,441,41,-16508
488508,419,23,-16411
488512,382,31,-16513
488516,356,29,-16431
488520,336,-35,-16447
488524,309,-68,-16429
488528,324,-57,-16473
488532,305,-122,-16480
488536,320,-82,-16379
488540,377,-110,-16475
488544,355,-74,-16386
488548,339,-65,-16451
488552,368,-68,-16457
488556,369,-44,-16436
488560,417,25,-16456
488564,405,24,-16522
488568,413,42,-16389
488572,474,70,-16632
488576,466,-14,-16557
488580,439,40,-16296
488583,396,-33,-16420
488587,412,-18,-16540
488591,411,-77,-16333
488595,425,-40,-16524
488599,374,-79,-16429
488604,389,-66,-16371
488607,368,-72,-16479
488611,363,-52,-16417
488615,336,-64,-16252
488620,364,-38,-16624
488623,298,-45,-16297
488627,337,-4,-16480
488631,367,46,-16431
488635,356,-39,-16311
488639,374,20,-16544
488643,371,-12,-16393
488647,379,-18,-16379
488651,447,-18,-16500
488655,392,-31,-16295
488659,384,-81,-16605
488663,366,-36,-16261
488667,454,-137,-16336
488671,421,-36,-16584
488675,386,-145,-16271
488680,415,27,-16495
488683,358,-58,-16478
488687,433,-3,-16360
488691,370,-2,-16351
488695,323,47,-16588
488699,370,-64,-16329
488703,385,64,-16444
488707,373,-44,-16597
488711,394,-8,-16306
488715,375,-58,-16580
488719,340,-38,-16557
488723,381,-221,-16408
488727,384,4,-16422
488731,488,-57,-16010
488735,299,-24,-16721
488739,335,-77,-16556
488743,416,-95,-16246
488747,473,-21,-16908
488751,338,-76,-16671
488755,376,10,-16041
488759,389,-47,-16745
488763,436,-53,-16308
488767,480,-62,-16661
488771,407,-14,-16571
488775,308,-45,-16457
488779,333,93,-16434
488783,356,-64,-16259
488787,511,43,-16522
488791,382,58,-16493
488795,223,-102,-16476
488799,502,-105,-16428
488803,420,-34,-16279
488807,309,-79,-16763
488811,363,-102,-16035
488815,261,6,-16303
488819,418,-110,-16582
488823,327,30,-16214
488827,324,41,-16546
488831,274,-22,-16528
488835,435,100,-16369
488839,371,-62,-16378
488843,341,-29,-16585
488847,364,-23,-16075
488851,387,-90,-16763
488855,419,-3,-16504
488859,427,-120,-16470
488863,392,-55,-16459
488867,388,-97,-16524
488871,466,-29,-16489
488875,451,-54,-16284
488879,392,-22,-16073
488883,380,-34,-16979
488887,401,-41,-16137
488891,402,-16,-16784
488895,357,-85,-16206
488899,198,22,-16430
488903,406,-126,-16263
488907,392,-64,-16710
488911,109,-7,-16131
488915,344,63,-16815
488919,379,4,-16870
488923,447,-57,-15927
488927,362,-69,-16968
488931,317,-55,-16832
488935,383,34,-15771
488939,398,-106,-16762
488943,423,-132,-16240
488947,434,-40,-16408
488951,429,-67,-17066
488955,406,47,-16066
488959,479,27,-16425
488963,438,30,-16623
488966,481,-108,-16212
488970,353,65,-16192
488974,340,34,-16599
488978,438,-83,-16394
488982,358,136,-16357
488986,325,7,-16578
488990,327,17,-16333
488994,336,-83,-16398
488998,334,-136,-16633
489002,380,-71,-16363
489006,301,-154,-16351
489010,374,-53,-16613
489014,301,-169,-16321
489018,452,-71,-16516
489022,381,-122,-16683
489026,264,9,-16302
489030,321,-1,-16403
489034,437,-32,-16471
489038,362,-44,-16381
489042,310,75,-16301
489046,291,60,-16599
489050,354,90,-16281
489054,413,39,-16457
489058,363,52,-16537
489062,343,-29,-16198
489066,320,-19,-16670
489070,455,-126,-16434
489074,482,-62,-16264
489078,429,-161,-16656
489082,408,-120,-16289
489086,444,-36,-16232
489090,461,-89,-16602
489094,486,-4,-16397
489098,402,45,-16494
489102,324,2,-16496
489106,449,75,-16129
489109,388,84,-16720
489113,331,42,-16648
489117,316,65,-16210
489121,274,29,-16682
489125,273,0,-16589
489129,362,49,-16314
489133,138,-88,-16590
489137,199,-55,-16440
489141,299,-91,-16362
489145,350,-104,-16582
489149,350,-91,-16319
489153,412,-79,-16444
489157,375,-161,-16468
489161,519,-145,-16376
489165,558,-64,-16421
489169,484,-19,-16495
489173,461,14,-16422
489177,498,-28,-16455
489181,459,46,-16414
489185,465,0,-16496
489189,441,117,-16358
489193,380,31,-16478
489197,413,45,-16544
489201,351,-59,-16397
489205,346,-62,-16404
489209,303,-54,-16471
489213,252,-61,-16442
489217,261,-95,-16472
489221,247,-79,-16517
489225,278,-112,-16334
489229,258,-150,-16498
489233,284,-87,-16338
489237,284,-94,-16337
489241,294,-5,-16562
489245,385,6,-16331
489248,356,3,-16480
489252,410,27,-16401
489256,451,71,-16327
489260,468,28,-16477
489264,507,19,-16403
489268,514,54,-16501
489272,538,-22,-16368
489276,502,-44,-16431
489280,508,-112,-16473
489284,531,-122,-16382
489288,486,-167,-16534
489292,452,-33,-16387
489296,410,-55,-16424
489300,391,-50,-16502
489304,331,-41,-16474
489308,269,-12,-16342
489312,221,39,-16576
489316,203,37,-16266
489320,212,29,-16489
489324,227,-5,-16431
489328,288,19,-16394
489332,284,4,-16465
489336,290,-36,-16410
489340,312,-47,-16415
489344,409,-34,-16450
489348,480,-53,-16384
489352,485,-66,-16408
489356,479,-48,-16586
489360,538,-56,-16384
489364,529,35,-16567
489368,566,-83,-16381
489372,537,-7,-16328
489376,507,-52,-16469
489380,443,-57,-16455
489384,457,-16,-16464
489388,340,11,-16409
489392,315,-33,-16532
489396,319,-14,-16402
489400,203,-62,-16394
489404,215,-5,-16488
489408,283,1,-16316
489412,257,-53,-16350
489416,217,-51,-16508
489420,331,-41,-16375
489424,292,-28,-16472
489428,420,-5,-16432
489431,452,-2,-16246
489435,389,-39,-16578
489439,487,-25,-16418
489443,271,-34,-16396
489447,496,-47,-16575
489451,417,-26,-16242
489455,456,-59,-16425
489459,512,-9,-16488
489463,461,-59,-16390
489467,438,42,-16500
489471,425,-50,-16334
489475,424,54,-16252
489479,331,-62,-16609
489483,431,-21,-16541
489487,374,-73,-16265
489491,285,-136,-16619
489495,245,-119,-16568
489500,316,-55,-16228
489503,295,-64,-16644
489507,257,-49,-16423
489512,294,48,-16348
489515,352,9,-16455
489519,364,40,-16570
489523,399,29,-16339
489527,387,53,-16384
489531,411,16,-16574
489535,440,65,-16438
489539,451,-5,-16436
489543,459,-35,-16500
489547,451,-77,-16303
489551,413,-86,-16560
489555,443,-159,-16410
489559,441,-159,-16393
489563,398,-147,-16534
489567,390,-159,-16710
489571,389,-123,-16119
489575,403,-43,-16611
489579,335,-30,-16428
489583,369,70,-16328
489587,289,11,-16588
489591,344,147,-16454
489595,264,113,-16501
489599,387,26,-16501
489603,389,89,-16420
489607,374,52,-16460
489611,338,6,-16438
489615,374,-7,-16456
489619,387,-164,-16546
489623,407,-96,-16266
489627,345,-120,-16585
489631,352,-121,-16426
489635,443,-134,-16442
489639,447,-111,-16462
489643,395,-114,-16495
489647,371,-8,-16465
489651,426,-115,-16327
489655,394,-12,-16404
489659,391,126,-16522
489663,369,-41,-16250
489667,376,26,-16561
489671,384,-6,-16508
489675,430,-3,-16210
489679,455,38,-16648
489683,373,-25,-16446
489687,323,31,-16458
489691,456,-20,-16522
489695,417,-28,-16321
489699,316,-191,-16576
489703,381,-55,-16310
489707,343,-80,-16535
489711,357,-78,-16607
489715,329,-104,-16438
489719,372,42,-16748
489723,323,-51,-16031
489727,375,-62,-16027
489731,332,-55,-16732
489735,404,-25,-16377
489739,428,-19,-16088
489743,382,-15,-16789
489747,387,-90,-16559
489751,357,138,-16448
489755,413,-106,-16499
489759,441,20,-16109
489763,374,49,-16698
489767,406,-100,-16311
489771,386,94,-16164
489775,412,-98,-16634
489779,423,-32,-16630
489783,343,-24,-16217
489787,263,-80,-16488
489791,473,-66,-16536
489795,451,2,-16333
489799,422,15,-16369
489803,250,-36,-16298
489807,331,-115,-16669
489811,464,43,-16176
489815,398,-20,-16867
489819,304,91,-16581
489823,257,21,-16254
489826,413,-12,-16793
489831,483,16,-16235
489834,403,-154,-16625
489839,392,-62,-16299
489843,288,-66,-16063
489847,443,-25,-16782
489851,409,-120,-16337
489855,457,14,-16203
489859,369,14,-16524
489862,373,-61,-16346
489866,461,-19,-16514
489870,431,-49,-16511
489875,452,97,-16337
489878,279,1,-16724
489882,389,25,-16812
489886,536,52,-15994
489890,388,-32,-17060
489894,243,-26,-16570
489898,369,108,-16108
489902,414,-110,-16754
489906,364,-80,-16400
489910,314,-62,-16309
489914,375,-54,-16299
489918,341,-97,-16520
489922,407,-83,-16482
489926,346,-66,-16641
489930,369,-31,-16403
489934,312,67,-16438
489938,313,-48,-16713
489942,437,156,-15973
489946,412,17,-16450
489950,341,-77,-16483
489954,465,102,-15982
489958,421,-32,-16715
489962,364,-17,-16521
489966,482,23,-16099
489970,395,23,-16724
489974,307,33,-16137
489978,432,-44,-16334
489982,378,12,-16744
489986,395,-44,-16326
489990,412,-84,-16436
489994,273,-115,-16516
489998,408,-34,-16270
490002,421,-105,-16531
490006,254,103,-16747
490010,347,-139,-16313
490014,354,17,-16571
490018,347,-113,-16530
490022,344,-5,-16427
490026,285,-67,-16362
490030,334,-60,-16608
490034,429,-107,-16026
490038,298,50,-16432
490042,306,38,-16374
490046,373,-34,-16557
490050,324,-40,-16849
490054,361,-49,-16410
490058,361,-44,-16201
490062,227,-73,-16632
490066,267,-140,-16079
490070,350,6,-16576
490074,301,-33,-16152
490078,402,-89,-16747
490082,406,-27,-16464
490086,501,32,-16465
490089,438,-137,-16289
490094,526,50,-16568
490097,511,-69,-16475
490101,487,114,-16324
490105,405,92,-16451
490109,383,-42,-16579
490113,394,105,-16405
490117,413,-5,-16396
490121,309,-33,-16485
490125,310,42,-16475
490129,174,65,-16444
490133,332,-150,-16371
490137,157,2,-16317
490141,305,-181,-16716
490145,227,-79,-16199
490149,379,-6,-16543
490153,276,-47,-16468
490157,348,10,-16361
490161,454,22,-16314
490165,387,-41,-16499
490169,433,25,-16331
490173,402,15,-16373
490177,331,12,-16551
490181,461,89,-16236
490185,543,7,-16645
490188,527,85,-16221
490192,458,13,-16415
490196,366,-94,-16618
490200,542,-4,-16364
490204,445,-54,-16661
490208,395,8,-16730
490212,403,-112,-16362
490216,395,-8,-16275
490220,365,-39,-16381
490224,341,-101,-16474
490228,310,-14,-16399
490232,481,-30,-16559
490236,210,-3,-16367
490240,258,-66,-16711
490244,252,-29,-16107
490248,246,-33,-16552
490252,303,-30,-16259
490256,434,-8,-16497
490260,271,49,-16508
490264,371,15,-16537
490268,371,-43,-16342
490272,457,6,-16457
490276,403,-143,-16414
490280,479,-189,-16458
490284,475,-61,-16498
490288,509,-215,-16369
490292,484,-126,-16615
490296,516,30,-16712
490300,451,-2,-16216
490304,559,25,-16477
490308,525,155,-16586
490312,412,20,-16385
490316,451,159,-16865
490320,396,81,-16175
490324,333,35,-16437
490328,354,76,-16660
490332,352,-1,-16283
490335,273,-23,-16702
490339,373,-92,-16251
490343,121,-101,-16258
490347,304,-145,-16541
490352,295,-66,-16392
490356,234,-156,-16463
490360,366,-77,-16641
490364,349,-218,-16203
490368,517,55,-16804
490372,524,-70,-16225
490376,433,-45,-16380
490380,426,-106,-16400
490384,503,-34,-16279
490388,483,-80,-16362
490392,449,24,-16505
490396,460,43,-16211
490400,412,97,-16426
490404,351,38,-16487
490408,349,70,-16257
490411,276,-53,-16657
490415,215,57,-16141
490419,489,-122,-16391
490423,284,-130,-16634
490428,279,-98,-16091
490432,432,-180,-16721
490436,266,-140,-16313
490440,310,53,-16120
490444,443,-56,-16681
490448,301,14,-16217
490451,463,-52,-16477
490455,474,-64,-16356
490460,366,17,-16420
490463,453,72,-16584
490467,418,-90,-16426
490471,445,77,-16493
490475,487,9,-16445
490479,487,41,-16508
490483,456,-3,-16349
490487,454,62,-16688
490491,492,-49,-16653
490495,384,-102,-16316
490499,195,80,-16513
490503,334,-28,-16609
490507,290,-59,-16374
490511,285,-8,-16460
490515,229,-64,-16481
490519,276,11,-16324
490523,232,-103,-16237
490527,346,-87,-16330
490531,307,-71,-16736
490535,271,8,-16073
490539,390,-145,-16803
490543,453,-57,-16126
490547,426,-39,-16782
490551,499,-30,-16424
490555,419,92,-16583
490559,398,68,-16452
490563,493,64,-16545
490567,459,25,-16302
490571,461,36,-16769
490574,477,46,-16148
490578,442,150,-16780
490582,414,-8,-16427
490586,470,-36,-16437
490590,492,42,-16698
490594,268,-112,-16281
490598,275,-57,-16679
490602,303,-82,-16833
490606,375,-128,-16064
490610,229,-99,-16646
490614,233,-226,-16207
490618,159,50,-16419
490622,281,-100,-16453
490626,439,-56,-16481
490630,402,68,-16324
490634,202,-50,-16393
490638,259,35,-16726
490642,419,25,-16154
490646,315,71,-16475
490650,355,48,-16536
490654,455,94,-16106
490658,513,-71,-16727
490662,528,-79,-16274
490666,541,-79,-16330
490670,476,-134,-16513
490674,563,-210,-16319
490678,444,-215,-16216
490682,428,-120,-16903
490686,517,-86,-16027
490690,348,-11,-16313
490694,263,52,-16747
490698,268,92,-16416
490702,294,134,-16253
490706,190,76,-16766
490710,164,114,-16070
490714,371,256,-16660
490718,276,-107,-16449
490722,350,35,-16062
490726,407,6,-16920
490730,452,-172,-16542
490734,387,-54,-16453
490738,536,-22,-16507
490742,431,-230,-16426
490746,500,-184,-16589
490750,482,-153,-16342
490754,527,-7,-16423
490758,535,42,-16349
490762,440,-41,-16193
490766,463,71,-16571
490770,430,94,-16306
490774,461,56,-16494
490778,339,124,-16434
490782,358,-21,-16246
490786,289,137,-16558
490790,259,17,-16467
490794,322,59,-16221
490798,308,-22,-16577
490802,197,-27,-16191
490806,302,-254,-16721
490810,213,-149,-16336
490814,412,-288,-16305
490818,291,-42,-16679
490822,325,-73,-16185
490826,475,-53,-16877
490830,430,-45,-16065
490834,382,103,-16554
490838,423,233,-16714
490842,460,109,-16204
490846,513,200,-16078
490850,398,85,-16824
490854,461,104,-16267
490858,476,100,-16408
490862,421,-99,-16623
490866,443,-36,-16304
490870,492,-275,-16796
490874,340,-210,-16265
490878,332,-257,-16296
490883,247,-191,-16247
490887,302,-91,-16334
490891,268,-1,-16316
490895,212,-39,-16357
490899,235,119,-16641
490903,141,87,-16440
490906,265,159,-16387
490910,334,92,-16283
490914,311,86,-16482
490918,333,86,-16583
490922,357,105,-16355
490926,357,68,-16789
490930,481,-14,-16648
490934,450,-76,-16459
490938,492,-127,-16333
490942,436,-42,-16720
490946,532,-275,-16183
490950,551,-25,-16457
490954,437,-242,-16223
490958,473,-157,-16379
490963,409,14,-16659
490966,428,-191,-16205
490970,309,68,-16545
490974,295,24,-16295
490978,418,-12,-16136
490982,231,18,-16882
490986,102,69,-16291
490990,382,235,-16380
490994,231,-21,-16547
490998,208,-95,-16364
491002,310,-37,-16485
491006,296,-25,-16570
491010,425,-80,-16398
491014,424,-110,-16483
491018,382,3,-16935
491022,498,-108,-16280
491026,499,-26,-16520
491030,495,71,-16608
491034,606,-3,-16365
491038,455,36,-16634
491042,344,91,-16202
491046,422,-8,-16704
491050,416,116,-16361
491054,321,-31,-16284
491058,227,9,-16675
491062,137,-129,-16004
491066,233,-134,-16643
491070,215,-86,-16663
491074,133,-129,-15983
491078,216,57,-16273
491082,228,-29,-16526
491086,309,-35,-16418
491090,390,134,-16522
491094,341,3,-16201
491098,285,-9,-16481
491102,423,13,-16354
491106,607,-45,-16419
491110,564,8,-16310
491113,465,-9,-16525
491117,471,-88,-16316
491121,571,-87,-16740
491125,694,-145,-16176
491129,489,-43,-16582
491133,304,-88,-16417
491137,348,-102,-16309
491142,308,-88,-16552
491146,332,-25,-16594
491150,242,20,-16199
491153,154,-2,-16504
491157,259,-39,-16650
491161,349,21,-16201
491165,413,-45,-16672
491169,144,-78,-16185
491173,140,29,-16182
491177,221,23,-16666
491181,488,-20,-16926
491185,359,20,-15675
491189,382,24,-17050
491193,162,-35,-16274
491197,580,111,-16146
491201,686,-99,-16981
491205,579,-29,-16092
491209,437,1,-16345
491213,448,-72,-17124
491217,596,-28,-15854
491221,635,-134,-16057
491225,640,14,-17027
491229,314,-39,-15688
491233,406,-116,-16272
491237,375,-115,-16853
491241,437,-132,-16090
491245,200,1,-16897
491249,170,-23,-16160
491253,269,35,-16127
491257,344,3,-16812
491261,281,-20,-16189
491265,216,107,-16146
491269,226,60,-16691
491273,291,15,-16125
491277,258,-16,-16842
491281,384,-89,-16199
491285,271,-96,-16591
491289,281,33,-16433
491293,408,-131,-16321
491297,519,-8,-16502
491301,484,57,-16433
491305,462,-107,-16706
491309,342,63,-16256
491313,746,90,-16513
491316,580,-22,-16178
491320,445,9,-16330
491324,294,-88,-16477
491328,355,-4,-16209
491332,363,-8,-16668
491336,337,-150,-16748
491340,213,-77,-16124
491344,180,-14,-16807
491348,199,-60,-16616
491352,282,-34,-16173
491356,301,-55,-16646
491360,257,-52,-16352
491364,357,60,-16554
491368,262,55,-16785
491372,365,12,-16332
491376,445,80,-16729
491380,466,-53,-16114
491384,418,83,-16844
491388,434,-61,-16484
491392,524,-25,-16493
491396,523,62,-16457
491400,429,73,-16596
491404,510,5,-16161
491408,558,10,-16534
491411,510,-75,-16354
491415,397,-113,-16649
491420,407,-91,-16118
491424,358,-120,-16663
491428,202,-87,-16465
491432,144,58,-16396
491436,325,-41,-16497
491440,122,-23,-16684
491444,120,2,-16223
491448,186,-80,-16318
491452,225,-67,-16701
491456,203,9,-16309
491459,274,-14,-16764
491463,407,98,-15968
491467,527,-33,-16639
491471,527,-17,-16154
491475,557,-52,-16463
491479,584,-110,-16415
491483,698,-98,-16265
491487,562,-155,-16645
491492,609,-34,-16460
491496,568,1,-16509
491499,465,-76,-16125
491503,409,112,-16702
491507,296,64,-16217
491511,200,149,-16499
491515,177,4,-16649
491519,248,89,-16071
491523,261,-5,-16612
491527,86,-40,-16530
491531,326,-63,-16310
491535,379,-69,-16542
491539,305,-137,-16540
491543,272,-167,-16198
491547,312,-201,-16552
491551,458,-121,-16692
491555,528,-157,-16137
491559,477,-76,-16624
491563,360,14,-15982
491567,435,-41,-16913
491571,474,74,-16017
491575,514,158,-16492
491579,437,33,-16535
491583,494,31,-16482
491587,371,118,-16515
491591,450,-31,-16293
491595,333,88,-15970
491599,364,-90,-16925
491603,300,-119,-16560
491607,354,6,-16011
491611,293,-219,-17086
491615,300,-114,-16290
491619,228,-174,-16418
491623,249,-179,-16546
491627,361,-130,-16114
491631,325,-39,-16662
491635,395,-84,-16244
491639,393,26,-16324
491643,324,40,-16650
491647,434,108,-16642
491651,561,171,-16516
491655,462,101,-16318
491659,340,76,-16352
491663,485,-21,-16447
491667,435,-44,-16544
491671,602,-85,-16397
491675,430,-181,-16301
491679,422,-109,-16251
491683,325,-157,-16492
491687,415,-121,-16563
491691,350,-282,-16402
491696,270,-4,-16451
491699,149,-12,-16483
491703,449,-107,-16513
491708,417,102,-16430
491712,254,6,-16567
491715,177,149,-16417
491719,186,153,-16276
491723,411,-2,-16639
491727,408,22,-16203
491731,297,75,-15993
491735,322,-140,-16878
491739,431,-11,-15856
491743,562,-76,-16603
491747,514,-150,-16324
491751,421,-68,-16378
491755,450,-87,-16523
491759,494,-131,-16344
491763,509,-80,-16677
491767,554,-194,-16612
491772,369,-21,-16420
491776,337,12,-16366
491779,343,-115,-16533
491783,384,47,-16443
491787,287,71,-16303
491791,269,211,-16454
491795,263,122,-16626
491799,344,71,-16824
491803,371,-4,-16010
491807,199,18,-16598
491811,230,-100,-16342
491815,413,-71,-16276
491819,393,-117,-16537
491823,455,-174,-16182
491827,299,-72,-16762
491831,329,-186,-16329
491836,463,-132,-16348
491840,424,45,-16704
491844,490,-42,-16026
491848,304,21,-16775
491852,494,97,-16169
491855,549,-138,-16665
491860,446,68,-16413
491863,287,4,-16365
491867,351,57,-16569
491871,394,34,-16153
491875,347,-8,-16686
491879,368,-53,-16312
491883,278,7,-16358
491887,323,-172,-16649
491891,348,27,-16754
491895,384,-99,-16251
491899,305,-253,-16539
491903,243,-119,-16554
491907,457,-207,-16401
491911,511,-111,-16676
491915,443,-12,-16156
491919,388,-73,-16681
491923,374,90,-16407
491927,529,74,-16478
491931,433,105,-16540
491935,361,136,-16386
491939,310,81,-16286
491943,366,46,-16654
491947,468,-87,-16416
491951,317,-109,-16455
491955,262,-90,-16747
491959,305,-148,-16133
491963,345,-152,-16722
491967,360,-126,-16680
491971,410,-87,-16031
491975,188,-95,-17104
491979,355,-232,-16249
491983,460,-135,-16437
491988,463,41,-16850
491991,364,56,-16169
491995,422,84,-16627
491999,511,-5,-16837
492003,566,58,-16241
492007,465,181,-16303
492011,449,67,-16773
492015,399,45,-16160
492019,707,57,-16247
492023,424,-104,-16646
492027,330,41,-16248
492031,287,-122,-16479
492035,284,-85,-16269
492039,236,-114,-16308
492043,261,-149,-16366
492047,221,-202,-16631
492051,234,-88,-16220
492055,258,-117,-16705
492059,386,-100,-16400
492063,302,92,-16499
492067,508,-41,-16664
492071,457,117,-16207
492075,392,110,-16589
492079,544,-12,-16466
492083,557,25,-15982
492087,506,153,-16761
492091,446,-100,-16198
492095,405,-34,-16279
492099,386,-118,-16839
492103,453,-42,-16384
492107,452,-92,-16195
492111,216,-124,-16893
492116,396,-127,-16195
492120,436,-361,-16514
492124,264,-138,-16495
492128,223,67,-15974
492132,319,-123,-16609
492136,364,94,-16519
492140,405,91,-16225
492144,328,91,-16797
492147,347,56,-16712
492151,342,137,-16178
492155,511,15,-16712
492159,398,94,-16200
492163,545,-109,-16701
492167,485,-15,-16613
492171,511,-88,-16502
492175,534,-48,-16183
492179,445,-145,-16849
492184,496,-172,-16025
492188,369,-109,-16679
492192,303,-70,-16385
492196,381,19,-16342
492200,322,67,-16821
492204,322,-30,-16535
492208,276,-11,-16345
492212,170,140,-16794
492216,168,97,-16530
492220,362,108,-16144
492224,376,132,-16729
492228,405,-166,-16233
492232,279,-61,-16343
492236,469,-135,-16494
492240,585,-124,-16243
492244,440,-122,-16546
492248,491,-212,-16267
492252,564,-190,-16643
492256,555,-240,-16353
492260,540,-45,-16552
492264,401,-142,-16508
492268,349,26,-16650
492272,472,41,-16441
492276,410,43,-16344
492280,387,148,-16707
492284,266,142,-16138
492288,179,114,-16762
492292,191,147,-16122
492296,318,-115,-16805
492300,97,2,-16460
492304,260,-107,-16427
492308,317,-215,-16471
492312,336,-118,-15947
492316,282,-152,-17049
492320,426,-157,-15927
492324,416,-89,-16234
492328,505,-114,-16724
492333,469,2,-16432
492336,611,40,-16497
492340,484,33,-16323
492344,485,96,-16146
492348,515,116,-16762
492352,578,155,-16674
492356,464,78,-16106
492360,294,16,-16734
492364,314,-91,-15961
492368,281,-74,-16549
492372,280,-141,-16571
492376,294,-99,-16442
492380,311,-56,-16360
492384,209,-156,-16623
492388,250,-127,-16494
492392,349,-162,-16246
492396,365,26,-16656
492400,303,-20,-16175
492404,322,62,-16325
492408,257,-50,-16565
492412,534,-31,-16244
492416,291,149,-15969
492420,377,-49,-16819
492424,469,74,-16161
492428,545,213,-16178
492432,544,80,-16828
492436,484,24,-16556
492440,492,41,-16211
492444,445,-177,-16702
492448,490,-104,-16208
492452,499,-231,-16431
492456,278,-240,-16711
492460,294,-72,-16355
492464,282,-132,-16615
492468,328,-87,-16222
492472,179,30,-16654
492476,160,-79,-16215
492480,172,91,-16553
492484,239,130,-16451
492488,237,130,-16387
492492,3,96,-16124
492496,219,35,-16950
492500,553,103,-16670
492504,451,-18,-16213
492508,499,-55,-16770
492512,510,-189,-16420
492516,498,-135,-16450
492520,543,-158,-16451
492524,577,-151,-16273
492528,536,-162,-16520
492532,537,-102,-16406
492536,585,26,-16730
492540,520,57,-16181
492544,340,-4,-16114
492548,290,-39,-16696
492552,294,98,-16324
492556,337,-48,-16458
492560,156,96,-16479
492564,179,-11,-16418
492568,226,107,-16494
492572,261,48,-16348
492576,222,-5,-16513
492580,329,31,-16414
492584,410,-121,-16413
492588,354,-26,-16450
492592,435,-43,-16326
492596,497,-212,-16294
492600,432,-87,-16632
492604,496,-159,-16229
492608,765,-131,-16709
492612,423,-33,-16455
492616,553,-49,-16166
492620,481,83,-16684
492624,412,76,-15979
492628,326,162,-16269
492632,446,-24,-16568
492636,348,94,-16207
492640,351,93,-16454
492644,210,-49,-16680
492648,395,18,-16083
492652,351,-29,-16803
492656,181,-144,-16157
492660,378,-107,-15909
492664,248,-123,-16897
492668,367,-363,-16024
492672,266,97,-16073
492676,306,-141,-16893
492680,421,-80,-16095
492684,479,-106,-16465
492688,405,12,-16677
492692,517,-31,-16562
492696,510,9,-16232
492700,535,57,-16640
492704,553,138,-16044
492708,400,93,-16672
492712,524,163,-16448
492716,517,51,-16450
492720,358,-14,-16458
492724,348,-134,-16373
492728,323,-81,-16271
492732,249,-75,-16888
492736,223,-127,-16268
492740,219,-119,-16472
492744,347,-180,-16255
492748,189,-31,-16214
492752,260,-28,-16420
492756,247,-164,-16281
492760,280,-9,-16554
492764,316,37,-16283
492768,413,-14,-16279
492772,419,106,-16609
492776,475,48,-16432
492780,545,88,-16329
492784,483,76,-16649
492788,569,-46,-16125
492792,507,229,-16763
492796,547,-55,-16354
492800,566,-61,-16333
492804,395,-8,-16597
492808,461,-74,-16579
492812,410,56,-16324
492816,298,13,-16581
492820,303,-97,-16649
492824,256,-75,-16358
492828,229,-50,-16691
492832,291,-11,-16208
492836,246,32,-16701
492840,238,-65,-16393
492844,310,22,-16451
492848,426,12,-16529
492852,321,60,-16480
492856,403,19,-16321
492860,486,16,-16687
492863,519,-39,-16357
492867,522,35,-16290
492871,455,-9,-16554
492875,541,-53,-16398
492879,592,-55,-16491
492883,475,-150,-16390
492887,396,-104,-16547
492892,334,-102,-16444
492896,364,-118,-16463
492900,292,-49,-16563
492904,352,-142,-16624
492908,168,-67,-16234
492912,171,-19,-16490
492916,244,47,-16492
492920,270,44,-16382
492924,212,51,-16432
492928,146,72,-16479
492931,315,-35,-16548
492935,352,35,-16363
492939,320,-94,-16306
492943,415,35,-16402
492947,426,-23,-16321
492951,487,-129,-16618
492955,532,-60,-16369
492959,525,-29,-16488
492963,550,-98,-16452
492967,574,-53,-16503
492971,547,-39,-16368
492975,496,-27,-16512
492979,509,27,-16455
492983,381,41,-16160
492987,323,-21,-16726
492991,397,20,-16155
492995,395,49,-16312
492999,236,243,-16543
493003,286,8,-16267
493007,244,-88,-16493
493011,256,25,-16518
493015,64,-120,-16161
493019,200,3,-16695
493023,195,-4,-16439
493026,349,-112,-16299
493031,316,-17,-16739
493035,215,-157,-16414
493039,259,7,-16480
493043,355,-57,-16611
493047,460,-38,-16357
493051,399,-34,-16549
493055,537,25,-16566
493058,472,21,-16276
493062,642,25,-16632
493066,563,-84,-16743
493070,540,-25,-16175
493074,438,23,-16535
493078,419,-11,-16458
493082,452,64,-16341
493086,381,-4,-16502
493090,379,-24,-16337
493094,306,-32,-16191
493098,247,-35,-16492
493102,338,-59,-16535
493106,248,-66,-16191
493110,274,-102,-16650
493114,241,-38,-16324
493118,365,-75,-16361
493122,247,-102,-16529
493126,407,-71,-16296
493130,382,-62,-16268
493134,350,-95,-16525
493138,510,-51,-16611
493142,446,-20,-16228
493146,508,25,-16578
493150,441,22,-16502
493154,481,27,-16349
493158,421,13,-16387
493162,374,5,-16528
493166,461,26,-16425
493170,345,-105,-16281
493174,348,24,-16732
493178,384,-97,-16500
493182,355,-13,-16286
493186,401,-28,-16759
493190,351,16,-16167
493194,385,-81,-16433
493198,368,-27,-16708
493202,334,-55,-16091
493206,329,-106,-16732
493210,389,-60,-16387
493214,296,-16,-16450
493218,333,-42,-16466
493222,289,18,-16415
493226,278,-49,-16367
493230,314,78,-16525
493234,293,17,-16323
493238,376,-11,-16696
493242,389,-7,-16347
493245,470,88,-16511
493249,505,-84,-16543
493253,491,9,-16264
493257,494,-35,-16540
493261,497,0,-16535
493265,395,-43,-16175
493269,406,21,-16198
493273,461,-58,-16679
493277,434,-75,-16319
493281,424,-16,-16446
493285,336,-63,-16597
493289,394,-29,-16304
493293,365,-35,-16572
493297,377,-12,-16263
493301,258,-63,-16272
493305,346,-52,-16534
493309,334,-105,-16468
493313,279,-5,-16282
493317,325,-28,-16562
493321,267,-37,-16460
493325,381,-53,-16342
493329,380,-6,-16517
493333,414,19,-16243
493337,399,-12,-16546
493341,392,55,-16452
493345,412,-16,-16613
493349,391,-133,-16388
493353,463,-14,-16100
493357,351,111,-16708
493361,452,-98,-16234
493365,538,65,-16488
493369,537,24,-16589
493373,403,-46,-16394
493377,407,-5,-16492
493381,444,-9,-16267
493384,408,-24,-16206
493388,340,-74,-16510
493393,362,-32,-16624
493397,360,-113,-16381
493401,318,-114,-16482
493405,291,-82,-16132
493409,319,-28,-16722
493413,260,-25,-16326
493417,201,-11,-16400
493421,218,-82,-16527
493425,305,47,-16397
493429,254,-29,-16240
493433,474,52,-16766
493437,305,3,-16167
493440,365,38,-16630
493444,416,30,-16354
493448,490,-81,-16306
493452,457,26,-16485
493456,468,-111,-16663
493460,455,-83,-16174
493464,480,-20,-16606
493468,431,-204,-16740
493473,488,56,-16079
493476,417,-77,-16694
493480,408,-93,-16335
493484,359,-30,-16488
493488,343,-33,-16409
493492,397,34,-16501
493496,290,118,-16428
493500,207,3,-16748
493504,341,73,-16309
493508,350,48,-16256
493512,267,-8,-16691
493516,275,-49,-16235
493520,319,-62,-16145
493524,320,-152,-16769
493528,457,-133,-16146
493532,416,-159,-16077
493536,384,-117,-16684
493540,377,-87,-16559
493544,515,-17,-16672
493548,442,27,-16525
493552,446,121,-16368
493556,509,36,-16555
493560,563,77,-16573
493564,571,165,-16293
493568,511,39,-16690
493572,512,56,-16357
493576,274,82,-16477
493580,413,-85,-16606
493584,286,-26,-16674
493588,150,-107,-16195
493592,108,-26,-16579
493596,71,-172,-16370
493600,182,-41,-16467
493604,241,-179,-16737
493608,280,-50,-16132
493612,288,-73,-16621
493616,353,1,-16714
493620,416,-94,-16173
493624,467,77,-16470
493628,501,91,-16393
493632,484,64,-16640
493636,544,29,-16404
493640,656,53,-16413
493644,708,10,-16523
493648,631,34,-16324
493651,630,21,-16500
493655,553,-79,-16595
493659,729,-157,-16386
493664,346,-151,-16484
493668,475,-136,-16423
493672,363,-176,-16378
493676,266,-171,-16460
493680,206,-121,-16354
493684,65,-77,-16644
493688,63,-9,-16719
493692,165,17,-16184
493696,108,96,-16849
493700,111,63,-16218
493703,272,185,-16365
493707,261,38,-16651
493711,296,86,-16316
493715,449,35,-16151
493719,431,-142,-16603
493723,476,-85,-16327
493727,553,-164,-16165
493731,576,-198,-16701
493736,597,-156,-16150
493740,520,-135,-16485
493744,607,-85,-16455
493748,514,-19,-16304
493752,297,-36,-16683
493756,449,-20,-16201
493760,448,83,-16264
493764,338,59,-16566
493767,295,130,-16421
493772,230,201,-16576
493776,245,-131,-16359
493780,245,131,-16541
493784,238,-65,-16518
493788,236,-146,-16236
493792,191,-150,-16740
493796,279,-236,-16423
493800,356,-221,-16428
493804,310,-126,-16571
493808,433,-184,-16544
493812,509,-144,-16466
493816,510,-29,-16534
493820,498,44,-16443
493824,543,131,-16421
493828,530,81,-16389
493832,488,59,-16633
493836,575,159,-16480
493840,482,68,-16523
493844,473,34,-16388
493848,408,-68,-16344
493852,334,-243,-16630
493856,308,-149,-16412
493860,247,-39,-16415
493864,193,-131,-16705
493868,171,-69,-16532
493872,149,-167,-16412
493876,170,-166,-16590
493880,253,-54,-16259
493884,227,-65,-16617
493888,428,-48,-16298
493892,464,17,-16493
493896,489,12,-16427
493900,504,133,-16527
493904,493,0,-16279
493908,581,75,-16597
493912,572,60,-16392
493916,544,55,-16396
493920,511,-6,-16219
493924,438,1,-16558
493928,495,-77,-16411
493932,414,-113,-16838
493936,405,-139,-16107
493940,292,-83,-16637
493944,221,-132,-16496
493948,337,-170,-16400
493952,286,-83,-16331
493956,211,-17,-16373
493960,291,-56,-16666
493964,273,42,-16348
493968,327,243,-16609
493972,324,81,-16159
493976,361,20,-16622
493980,276,3,-16402
493984,409,119,-16680
493987,421,2,-16299
493991,436,22,-16449
493995,405,44,-16574
493999,405,-115,-16299
494003,481,-86,-16707
494007,437,-193,-16277
494011,441,-194,-16491
494015,342,-164,-16393
494019,335,-124,-16322
494024,400,-44,-16694
494028,308,25,-16296
494032,300,32,-16548
494035,306,96,-16607
494039,293,140,-16168
494043,401,106,-16823
494047,345,115,-16536
494051,347,111,-16355
494055,346,37,-16696
494059,410,-69,-16269
494063,462,-50,-16567
494067,428,-32,-16525
494071,416,-197,-16369
494075,452,-135,-16629
494079,432,-241,-16467
494083,469,-216,-16586
494088,432,-129,-16367
494092,436,-36,-16387
494096,361,26,-16467
494100,469,-54,-16622
494104,450,203,-16349
494108,333,126,-16470
494112,55,120,-16326
494115,247,153,-16602
494119,358,89,-16601
494123,265,21,-16336
494127,336,-89,-16457
494131,308,-43,-16313
494135,308,-191,-16680
494139,448,-210,-16245
494144,393,-162,-16444
494148,406,-135,-16414
494152,480,-120,-16426
494156,482,40,-16477
494160,534,-33,-16525
494164,453,119,-16523
494168,503,128,-16380
494172,482,89,-16308
494176,398,101,-16253
494180,382,112,-16774
494184,385,57,-15882
494188,392,41,-16512
494192,156,-37,-16626
494196,398,-49,-16206
494200,289,-82,-16552
494204,273,-182,-16477
494208,144,-278,-16112
494212,280,-15,-16797
494216,254,-261,-16163
494220,366,-103,-16281
494224,321,-17,-16600
494228,348,-91,-16169
494232,450,73,-16600
494236,431,26,-16514
494240,471,108,-16286
494244,398,202,-16586
494248,475,54,-16207
494252,515,87,-16459
494256,482,15,-16383
494260,417,-111,-16369
494264,430,-57,-16549
494268,365,-157,-16299
494272,362,-152,-16541
494276,312,-112,-16378
494280,370,-107,-16456
494284,191,-104,-16606
494288,371,-186,-16367
494292,298,42,-16460
494296,270,-9,-16442
494300,297,-9,-16314
494304,321,56,-16603
494308,373,23,-16264
494312,395,91,-16322
494316,366,30,-16566
494319,342,29,-16321
494323,428,-71,-16561
494327,473,8,-16322
494331,373,-95,-16410
494335,383,-65,-16343
494339,326,-186,-16585
494343,476,-26,-16599
494347,344,-169,-16187
494351,361,-91,-16675
494355,333,3,-16514
494359,426,-10,-16331
494363,386,68,-16494
494367,388,7,-16474
494371,416,64,-16311
494375,446,3,-16532
494379,443,-51,-16368
494383,389,67,-16211
494387,458,-4,-16448
494391,310,-123,-16407
494395,404,-2,-16079
494399,443,-107,-16668
494403,327,-127,-16377
494407,386,2,-16317
494411,376,-106,-16704
494415,319,-108,-16487
494419,334,21,-16495
494423,351,-89,-16406
494427,396,43,-16469
494431,338,-6,-16402
494435,448,35,-16574
494439,404,-12,-16481
494443,408,-15,-16378
494447,377,-57,-16592
494451,415,8,-16389
494454,463,-96,-16431
494458,415,7,-16491
494462,469,41,-16318
494466,355,-89,-16643
494470,303,-66,-16336
494474,384,2,-16288
494478,410,-122,-16631
494482,355,-39,-16364
494486,297,64,-16397
494490,378,-37,-16521
494494,340,74,-16421
494498,314,17,-16456
494502,344,-98,-16466
494506,365,74,-16660
494510,391,74,-16206
494514,392,-61,-16798
494518,405,-138,-15975
494522,437,-26,-16749
494526,422,-128,-16513
494530,514,-28,-16271
494534,453,-107,-16691
494538,405,-17,-16401
494542,434,-82,-16581
494546,497,10,-16617
494550,518,-18,-16374
494554,250,-39,-16489
494558,381,4,-16812
494562,372,-222,-15980
494566,320,-68,-16941
494570,344,-93,-16131
494574,255,-89,-16589
494578,251,-82,-16541
494582,321,-117,-16353
494586,296,-108,-16588
494590,223,-37,-16625
494594,204,-60,-16369
494598,369,13,-16359
494602,386,-96,-16371
494606,480,-19,-16468
494610,427,44,-16405
494614,547,-21,-16328
494618,477,-15,-16678
494622,537,24,-16123
494626,570,-102,-16746
494630,517,-114,-16250
494634,490,-75,-15798
494638,449,-147,-16859
494642,412,-114,-16329
494646,431,-44,-15873
494650,197,-127,-17081
494654,312,69,-16446
494658,235,-18,-16279
494662,298,-64,-16719
494666,196,103,-16611
494670,190,99,-16239
494674,256,53,-16620
494678,295,51,-15992
494682,301,-3,-16603
494686,313,-52,-16570
494690,317,-42,-16363
494694,427,-63,-16522
494698,482,-64,-16601
494702,566,-107,-16372
494706,518,-116,-16473
494710,580,-56,-16476
494714,543,24,-16347
494718,655,40,-16380
494722,428,44,-16398
494726,523,67,-16438
494730,397,86,-16263
494734,287,46,-16519
494738,314,17,-16719
494741,272,-35,-16114
494745,227,-34,-16858
494749,199,-65,-16584
494753,214,-220,-16308
494758,217,-40,-16793
494762,228,-122,-16086
494766,338,-151,-16708
494770,330,-45,-16297
494774,432,-102,-16602
494778,501,-23,-16249
494782,466,-33,-16355
494786,475,46,-16321
494790,510,65,-16438
494794,669,25,-16335
494798,522,140,-16522
494802,446,-27,-16348
494806,434,7,-16513
494809,549,-46,-16477
494813,425,-89,-16393
494817,321,-59,-16441
494821,337,-54,-16479
494825,324,-81,-16341
494829,328,-119,-16540
494833,191,-53,-16504
494837,269,-57,-16258
494841,182,-49,-16343
494845,171,-56,-16481
494850,292,-39,-16535
494854,298,81,-16417
494857,247,6,-16589
494861,274,17,-16609
494865,349,91,-16370
494869,459,-55,-16480
494873,489,116,-16509
494877,498,-41,-16308
494881,545,-58,-16579
494885,523,-69,-16404
494889,596,38,-16391
494893,567,-136,-16392
494897,554,5,-16557
494901,482,-108,-16419
494905,503,-42,-16590
494909,380,49,-16443
494913,311,-157,-16313
494917,362,97,-16248
494921,276,-71,-16614
494925,212,-41,-16347
494929,224,-44,-16580
494933,121,-12,-16423
494937,311,20,-16231
494941,208,71,-16783
494945,293,-34,-16711
494949,314,105,-16283
494953,389,36,-16644
494957,401,-58,-16275
494961,335,-7,-16524
494965,465,-63,-16687
494969,411,-135,-16285
494973,469,-65,-16529
494977,350,-159,-16446
494981,405,-12,-16520
494985,404,-69,-16254
494989,434,-123,-16700
494993,410,43,-16226
494997,408,16,-16508
495001,435,-61,-16543
495005,353,10,-16515
495009,447,-21,-15958
495013,452,82,-17005
495017,353,-23,-16014
495021,369,30,-16419
495025,368,37,-16616
495028,465,-86,-16344
495033,453,-89,-16510
495037,326,-86,-16464
495041,359,-91,-16134
495045,403,252,-16646
495049,392,-84,-16209
495053,353,62,-16711
495056,427,43,-16348
495060,310,71,-16360
495064,368,38,-16794
495068,424,35,-16547
495072,338,-21,-16369
495076,363,46,-16506
495080,423,-151,-16303
495084,353,-58,-16544
495088,443,-94,-16389
495092,399,-64,-16120
495096,372,-87,-16784
495100,329,41,-16428
495104,316,-32,-16452
495108,496,32,-16508
495112,501,27,-16636
495116,388,111,-16149
495120,450,-12,-16743
495124,418,-9,-16634
495128,468,90,-16102
495132,284,49,-16490
495136,273,-239,-16514
495140,399,0,-16129
495144,411,-17,-16809
495148,242,-143,-16107
495152,305,-113,-16409
495156,327,-175,-16325
495160,349,-140,-16627
495164,306,-93,-16073
495168,310,-147,-16827
495172,357,8,-16220
495176,322,-87,-16315
495180,431,-88,-16829
495184,387,63,-16601
495188,374,-69,-16210
495192,317,-3,-16707
495196,486,-6,-16261
495200,441,37,-16634
495204,439,2,-16672
495208,344,86,-16387
495212,370,23,-16486
495215,731,-99,-16725
495219,433,161,-16326
495223,422,12,-16392
495227,375,-62,-16627
495231,367,-75,-16189
495235,379,-117,-16450
495240,262,-52,-16364
495244,196,-10,-16444
495248,281,-90,-16686
495252,283,-47,-16214
495256,361,-40,-16515
495260,335,43,-16424
495263,264,78,-16387
495267,477,55,-16530
495271,353,60,-16397
495275,440,-7,-16256
495279,534,228,-16832
495283,418,-66,-15920
495287,509,-3,-16388