timestamp,accX,accY,accZ
119795,-1097,82,-16445
119799,-1087,57,-16418
119803,-1078,76,-16453
119808,-1092,83,-16455
119812,-1089,79,-16455
119816,-1086,76,-16437
119820,-1089,69,-16422
119824,-1094,90,-16446
119828,-1109,90,-16441
119832,-1098,61,-16431
119836,-1089,96,-16413
119840,-1073,95,-16419
119844,-1077,84,-16422
119849,-1071,79,-16426
119853,-1076,85,-16449
119857,-1088,87,-16431
119861,-1092,94,-16420
119865,-1094,81,-16441
119869,-1094,74,-16454
119873,-1107,76,-16424
119877,-1098,73,-16443
119881,-1086,80,-16439
119885,-1080,87,-16431
119889,-1088,79,-16432
119894,-1087,82,-16433
119898,-1098,86,-16430
119902,-1104,91,-16439
119906,-1082,68,-16435
119910,-1082,81,-16423
119914,-1111,86,-16468
119918,-1081,75,-16443
119922,-1096,72,-16430
119926,-1082,70,-16453
119930,-1077,77,-16441
119935,-1075,84,-16418
119939,-1092,91,-16432
119943,-1091,89,-16430
119947,-1100,92,-16435
119951,-1105,85,-16430
119955,-1096,62,-16438
119959,-1090,108,-16438
119963,-1105,93,-16438
119967,-1105,86,-16458
119971,-1086,97,-16428
119976,-1092,89,-16441
119980,-1080,77,-16443
119984,-1094,82,-16446
119988,-1084,81,-16445
119992,-1096,89,-16432
119996,-1081,78,-16438
120000,-1096,83,-16449
120004,-1087,84,-16442
120008,-1096,87,-16406
120012,-1101,77,-16422
120016,-1100,86,-16425
120021,-1084,75,-16426
120025,-1087,85,-16430
120029,-1085,85,-16435
120033,-1098,70,-16430
120037,-1100,80,-16442
120041,-1086,89,-16444
120045,-1088,85,-16419
120049,-1083,86,-16432
120053,-1077,60,-16448
120057,-1093,78,-16430
120061,-1099,90,-16443
120066,-1092,67,-16427
120070,-1096,66,-16428
120074,-1078,77,-16437
120078,-1071,80,-16447
120082,-1090,85,-16447
120086,-1090,85,-16447
120090,-1090,66,-16436
120094,-1092,70,-16452
120098,-1088,80,-16455
120103,-1084,78,-16450
120107,-1084,92,-16438
120111,-1102,89,-16440
120115,-1096,73,-16432
120119,-1078,51,-16424
120123,-1103,91,-16422
120127,-1105,85,-16438
120131,-1088,79,-16419
120135,-1092,73,-16424
120139,-1089,91,-16441
120143,-1085,77,-16458
120148,-1094,76,-16449
120152,-1095,73,-16445
120156,-1083,75,-16428
120160,-1106,85,-16429
120164,-1098,85,-16430
120168,-1086,84,-16422
120172,-1098,69,-16424
120176,-1092,71,-16430
120180,-1090,67,-16421
120184,-1100,83,-16411
120189,-1118,74,-16432
120193,-1088,80,-16444
120197,-1106,70,-16448
120201,-1111,64,-16446
120205,-1095,79,-16437
120209,-1092,73,-16427
120213,-1096,79,-16417
120217,-1079,80,-16422
120221,-1081,85,-16422
120225,-1098,77,-16443
120229,-1081,71,-16458
120233,-1090,80,-16436
120238,-1092,69,-16433
120242,-1079,55,-16423
120246,-1093,59,-16415
120250,-1070,77,-16430
120254,-1099,94,-16430
120258,-1098,72,-16425
120262,-1087,77,-16423
120266,-1093,85,-16442
120270,-1101,89,-16442
120274,-1094,75,-16435
120279,-1080,88,-16443
120283,-1082,69,-16434
120287,-1104,88,-16440
120291,-1101,89,-16436
120295,-1095,91,-16442
120299,-1098,87,-16412
120303,-1088,80,-16425
120307,-1096,71,-16438
120311,-1102,95,-16445
120316,-1069,76,-16440
120320,-1085,79,-16444
120324,-1080,85,-16430
120328,-1087,87,-16429
120332,-1083,92,-16432
120336,-1090,81,-16427
120340,-1104,90,-16432
120344,-1110,81,-16431
120348,-1095,81,-16419
120352,-1083,81,-16437
120357,-1080,83,-16435
120361,-1078,79,-16420
120365,-1096,102,-16429
120369,-1085,60,-16441
120373,-1091,71,-16452
120377,-1074,76,-16434
120381,-1081,77,-16437
120385,-1102,93,-16425
120390,-1075,90,-16433
120394,-1079,74,-16432
120398,-1091,82,-16439
120402,-1085,74,-16436
120406,-1075,76,-16433
120410,-1078,76,-16436
120414,-1082,86,-16445
120418,-1081,77,-16453
120422,-1082,58,-16430
120426,-1104,64,-16427
120431,-1111,83,-16430
120435,-1080,83,-16430
120439,-1093,85,-16445
120443,-1088,81,-16449
120447,-1092,74,-16434
120451,-1102,71,-16461
120455,-1083,90,-16438
120459,-1078,92,-16457
120463,-1092,83,-16414
120467,-1081,90,-16409
120472,-1092,66,-16442
120476,-1098,83,-16421
120480,-1093,64,-16425
120484,-1105,82,-16445
120488,-1092,85,-16468
120492,-1102,73,-16449
120496,-1089,75,-16449
120500,-1101,76,-16431
120504,-1087,74,-16435
120509,-1090,70,-16422
120513,-1097,80,-16431
120517,-1106,83,-16433
120521,-1087,84,-16422
120525,-1095,62,-16422
120529,-1086,91,-16417
120533,-1096,81,-16421
120537,-1086,74,-16421
120541,-1078,78,-16415
120545,-1091,82,-16420
120550,-1082,69,-16418
120554,-1088,74,-16431
120558,-1079,88,-16416
120562,-1088,80,-16409
120566,-1095,71,-16442
120570,-1079,79,-16455
120574,-1092,90,-16462
120578,-1094,89,-16416
120582,-1092,96,-16450
120586,-1081,92,-16435
120591,-1098,92,-16445
120595,-1083,88,-16428
120599,-1098,88,-16428
120603,-1092,79,-16441
120607,-1104,89,-16432
120611,-1067,67,-16434
120615,-1079,76,-16422
120619,-1081,72,-16445
120623,-1072,73,-16436
120627,-1087,67,-16434
120632,-1075,75,-16445
120636,-1089,70,-16447
120640,-1089,90,-16420
120644,-1105,88,-16432
120648,-1080,72,-16417
120652,-1088,72,-16428
120656,-1095,95,-16450
120660,-1095,92,-16428
120664,-1109,89,-16433
120668,-1080,86,-16439
120672,-1085,61,-16439
120677,-1108,61,-16423
120681,-1096,77,-16454
120685,-1090,86,-16456
120689,-1078,78,-16450
120693,-1085,75,-16446
120697,-1086,64,-16443
120701,-1089,78,-16435
120705,-1098,88,-16440
120709,-1095,82,-16440
120713,-1089,77,-16424
120718,-1081,88,-16452
120722,-1077,62,-16459
120726,-1077,71,-16430
120730,-1107,76,-16420
120734,-1098,74,-16407
120738,-1084,68,-16418
120742,-1105,68,-16430
120746,-1093,86,-16441
120750,-1084,83,-16419
120754,-1098,76,-16457
120759,-1091,87,-16444
120763,-1094,71,-16436
120767,-1101,89,-16454
120771,-1095,73,-16445
120775,-1082,83,-16426
120779,-1088,69,-16439
120783,-1070,70,-16418
120787,-1094,72,-16434
120791,-1097,81,-16441
120795,-1094,82,-16451
120800,-1101,73,-16436
120804,-1099,74,-16417
120808,-1101,82,-16414
120812,-1098,63,-16422
120816,-1098,81,-16416
120820,-1110,84,-16446
120824,-1100,74,-16438
120828,-1093,68,-16416
120832,-1082,73,-16428
120836,-1086,83,-16431
120840,-1077,75,-16420
120844,-1079,85,-16455
120848,-1110,80,-16421
120853,-1091,82,-16437
120857,-1092,95,-16432
120861,-1090,91,-16423
120865,-1086,86,-16413
120869,-1091,99,-16448
120873,-1104,96,-16440
120877,-1077,73,-16454
120881,-1077,88,-16431
120885,-1098,91,-16425
120890,-1086,65,-16423
120894,-1098,85,-16454
120898,-1087,90,-16456
120902,-1080,64,-16448
120906,-1094,88,-16417
120910,-1102,98,-16428
120914,-1094,88,-16432
120918,-1077,96,-16433
120922,-1107,82,-16431
120926,-1085,82,-16433
120931,-1076,86,-16432
120935,-1106,77,-16437
120939,-1096,76,-16449
120943,-1102,90,-16450
120947,-1106,91,-16456
120951,-1082,95,-16460
120955,-1091,73,-16420
120959,-1092,76,-16440
120963,-1079,88,-16439
120968,-1093,83,-16427
120972,-1088,75,-16440
120976,-1093,75,-16427
120980,-1100,77,-16438
120984,-1075,64,-16427
120988,-1099,73,-16421
120992,-1090,75,-16443
120996,-1108,61,-16418
121000,-1083,71,-16425
121004,-1077,84,-16431
121008,-1077,86,-16438
121013,-1070,85,-16437
121017,-1069,73,-16448
121021,-1091,79,-16457
121025,-1097,77,-16436
121029,-1095,80,-16436
121033,-1078,71,-16424
121037,-1094,72,-16424
121041,-1098,80,-16429
121045,-1100,77,-16440
121049,-1108,88,-16442
121053,-1106,77,-16454
121057,-1083,71,-16420
121062,-1084,91,-16439
121066,-1092,99,-16450
121070,-1085,94,-16428
121074,-1082,79,-16429
121078,-1086,92,-16444
121082,-1110,88,-16437
121086,-1101,77,-16435
121090,-1094,81,-16461
121094,-1070,82,-16440
121098,-1090,74,-16433
121103,-1119,77,-16431
121107,-1073,101,-16461
121111,-1095,100,-16448
121115,-1095,69,-16432
121119,-1094,76,-16431
121123,-1089,87,-16435
121127,-1103,72,-16431
121131,-1092,93,-16433
121135,-1082,80,-16434
121140,-1066,73,-16440
121144,-1084,68,-16431
121148,-1073,92,-16434
121152,-1077,76,-16456
121156,-1093,81,-16452
121160,-1091,90,-16439
121164,-1079,86,-16430
121168,-1086,97,-16423
121172,-1093,94,-16428
121176,-1086,80,-16433
121181,-1086,78,-16442
121185,-1087,79,-16434
121189,-1084,74,-16448
121193,-1085,75,-16448
121197,-1092,81,-16445
121201,-1096,89,-16425
121205,-1092,86,-16444
121209,-1103,95,-16451
121213,-1089,92,-16419
121217,-1093,65,-16418
121222,-1093,83,-16440
121226,-1078,74,-16446
121230,-1086,72,-16433
121234,-1083,61,-16438
121238,-1077,69,-16443
121242,-1089,77,-16446
121246,-1081,81,-16443
121250,-1083,86,-16435
121254,-1085,73,-16450
121258,-1082,68,-16419
121262,-1078,63,-16413
121267,-1100,74,-16423
121271,-1098,83,-16438
121275,-1095,77,-16426
121279,-1081,75,-16432
121283,-1082,81,-16443
121287,-1071,83,-16458
121291,-1094,70,-16444
121295,-1089,89,-16425
121299,-1086,91,-16428
121304,-1082,89,-16421
121308,-1081,77,-16431
121312,-1095,83,-16435
121316,-1095,86,-16448
121320,-1097,85,-16432
121324,-1100,82,-16427
121328,-1098,54,-16443
121332,-1093,73,-16440
121336,-1103,88,-16424
121341,-1082,92,-16429
121345,-1069,83,-16455
121349,-1095,88,-16434
121353,-1091,62,-16420
121357,-1095,69,-16421
121361,-1085,67,-16451
121365,-1094,102,-16445
121369,-1094,86,-16429
121373,-1096,84,-16435
121377,-1091,77,-16437
121382,-1106,70,-16432
121386,-1086,75,-16447
121390,-1095,69,-16440
121394,-1094,76,-16439
121398,-1098,62,-16436
121402,-1076,83,-16437
121406,-1082,74,-16434
121410,-1095,70,-16440
121414,-1084,79,-16464
121418,-1091,76,-16426
121422,-1081,83,-16419
121427,-1098,76,-16443
121431,-1094,81,-16430
121435,-1095,88,-16432
121439,-1087,83,-16435
121443,-1080,75,-16446
121447,-1100,78,-16421
121451,-1090,74,-16437
121455,-1103,78,-16421
121459,-1100,81,-16417
121463,-1104,87,-16411
121468,-1091,79,-16429
121472,-1093,66,-16414
121476,-1085,71,-16428
121480,-1078,95,-16429
121484,-1085,102,-16429
121488,-1101,79,-16426
121492,-1076,61,-16425
121496,-1095,76,-16437
121500,-1090,78,-16433
121505,-1059,70,-16416
121509,-1099,58,-16435
121513,-1089,60,-16437
121517,-1108,77,-16432
121521,-1089,82,-16443
121525,-1105,75,-16445
121529,-1089,72,-16429
121533,-1097,78,-16434
121537,-1091,64,-16435
121541,-1092,71,-16430
121545,-1089,70,-16445
121550,-1090,84,-16454
121554,-1099,94,-16435
121558,-1087,98,-16434
121562,-1077,79,-16438
121566,-1067,51,-16442
121570,-1084,58,-16430
121574,-1101,74,-16429
121578,-1084,84,-16434
121582,-1055,86,-16428
121586,-1085,60,-16430
121591,-1103,75,-16414
121595,-1081,59,-16418
121599,-1079,55,-16428
121603,-1097,60,-16425
121607,-1075,99,-16419
121611,-1095,88,-16434
121615,-1100,89,-16440
121619,-1088,80,-16439
121623,-1093,79,-16419
121627,-1107,83,-16423
121632,-1094,74,-16415
121636,-1087,81,-16427
121640,-1077,74,-16430
121644,-1089,87,-16420
121648,-1096,85,-16425
121652,-1098,86,-16454
121656,-1089,63,-16443
121660,-1079,77,-16430
121664,-1086,83,-16431
121668,-1072,70,-16432
121672,-1079,77,-16441
121676,-1097,72,-16447
121681,-1082,85,-16444
121685,-1081,83,-16438
121689,-1083,74,-16418
121693,-1093,88,-16438
121697,-1108,87,-16433
121701,-1072,76,-16444
121705,-1094,78,-16434
121709,-1082,76,-16418
121713,-1096,84,-16432
121718,-1070,75,-16432
121722,-1083,73,-16429
121726,-1110,70,-16434
121730,-1103,101,-16437
121734,-1110,73,-16442
121738,-1087,79,-16425
121742,-1097,85,-16431
121746,-1094,73,-16428
121750,-1086,77,-16446
121755,-1104,90,-16435
121759,-1096,91,-16445
121763,-1089,99,-16429
121767,-1106,104,-16422
121771,-1100,83,-16426
121775,-1087,87,-16430
121779,-1090,80,-16438
121783,-1091,77,-16460
121787,-1088,79,-16424
121792,-1099,75,-16429
121796,-1084,97,-16436
121800,-1081,101,-16437
121804,-1085,74,-16429
121808,-1080,93,-16436
121812,-1094,86,-16421
121816,-1086,66,-16431
121820,-1072,81,-16418
121824,-1102,91,-16443
121828,-1081,79,-16438
121833,-1090,64,-16438
121837,-1092,80,-16439
121841,-1102,78,-16431
121845,-1104,97,-16429
121849,-1077,64,-16449
121853,-1098,89,-16448
121857,-1107,87,-16421
121861,-1094,91,-16427
121865,-1082,84,-16445
121870,-1094,112,-16437
121874,-1074,94,-16438
121878,-1080,73,-16442
121882,-1094,72,-16440
121886,-1095,73,-16438
121890,-1092,75,-16440
121894,-1079,67,-16423
121898,-1082,82,-16422
121902,-1098,69,-16418
121907,-1096,78,-16426
121911,-1106,77,-16433
121915,-1095,84,-16438
121919,-1088,71,-16439
121923,-1099,77,-16412
121927,-1083,88,-16418
121931,-1090,91,-16422
121935,-1103,88,-16430
121939,-1092,86,-16430
121943,-1098,59,-16443
121947,-1105,75,-16438
121952,-1096,78,-16442
121956,-1097,87,-16437
121960,-1101,80,-16438
121964,-1083,72,-16444
121968,-1074,74,-16427
121972,-1093,64,-16427
121976,-1087,93,-16430
121980,-1072,71,-16439
121984,-1099,76,-16429
121988,-1103,76,-16439
121993,-1092,77,-16423
121997,-1081,75,-16425
122001,-1096,97,-16436
122005,-1078,81,-16457
122009,-1078,94,-16419
122013,-1082,68,-16425
122017,-1090,62,-16457
122021,-1098,61,-16447
122025,-1090,93,-16453
122029,-1081,77,-16457
122034,-1093,84,-16417
122038,-1090,76,-16428
122042,-1078,86,-16425
122046,-1101,65,-16408
122050,-1101,85,-16421
122054,-1103,91,-16434
122058,-1100,94,-16442
122062,-1103,81,-16450
122066,-1103,76,-16463
122070,-1087,83,-16444
122075,-1089,91,-16452
122079,-1071,80,-16454
122083,-1116,70,-16425
122087,-1103,78,-16447
122091,-1077,70,-16429
122095,-1088,100,-16441
122099,-1088,86,-16440
122103,-1086,83,-16422
122107,-1120,81,-16442
122112,-1096,79,-16437
122116,-1097,75,-16442
122120,-1092,76,-16453
122124,-1095,78,-16446
122128,-1095,82,-16450
122132,-1090,83,-16425
122136,-1092,70,-16430
122140,-1108,76,-16427
122144,-1084,80,-16431
122148,-1086,89,-16433
122153,-1094,86,-16420
122157,-1088,81,-16425
122161,-1073,78,-16449
122165,-1105,83,-16436
122169,-1086,93,-16445
122173,-1078,74,-16435
122177,-1090,68,-16428
122181,-1101,77,-16422
122185,-1092,83,-16420
122189,-1100,85,-16426
122193,-1075,77,-16422
122198,-1086,77,-16431
122202,-1094,89,-16431
122206,-1103,75,-16418
122210,-1089,77,-16444
122214,-1098,84,-16440
122218,-1085,76,-16451
122222,-1088,71,-16431
122226,-1096,77,-16414
122230,-1104,78,-16430
122234,-1109,66,-16433
122239,-1096,72,-16424
122243,-1097,76,-16435
122247,-1098,91,-16425
122251,-1092,82,-16453
122255,-1100,77,-16439
122259,-1096,78,-16449
122263,-1094,75,-16441
122267,-1099,87,-16430
122271,-1094,58,-16442
122276,-1096,54,-16435
122280,-1093,81,-16431
122284,-1097,92,-16433
122288,-1086,94,-16426
122292,-1076,72,-16433
122296,-1084,90,-16418
122300,-1072,87,-16440
122304,-1086,79,-16448
122308,-1093,73,-16437
122312,-1097,77,-16440
122317,-1094,64,-16441
122321,-1075,69,-16458
122325,-1077,59,-16420
122329,-1085,92,-16440
122333,-1070,90,-16443
122337,-1072,89,-16436
122341,-1085,81,-16432
122345,-1081,96,-16441
122349,-1083,79,-16440
122353,-1105,67,-16445
122357,-1099,79,-16420
122361,-1085,79,-16430
122366,-1092,80,-16433
122370,-1090,96,-16422
122374,-1084,96,-16438
122378,-1096,94,-16437
122382,-1101,74,-16438
122386,-1093,73,-16440
122390,-1089,84,-16430
122394,-1091,76,-16431
122398,-1089,82,-16435
122402,-1102,84,-16442
122407,-1094,77,-16427
122411,-1108,66,-16439
122415,-1085,82,-16425
122419,-1073,70,-16443
122423,-1093,75,-16422
122427,-1079,60,-16427
122431,-1102,89,-16435
122435,-1088,100,-16437
122439,-1084,63,-16447
122444,-1092,67,-16421
122448,-1096,77,-16435
122452,-1098,88,-16434
122456,-1084,74,-16439
122460,-1106,73,-16427
122464,-1093,90,-16420
122468,-1095,77,-16422
122472,-1098,79,-16421
122476,-1094,80,-16429
122480,-1098,80,-16427
122484,-1082,67,-16422
122489,-1088,92,-16430
122493,-1097,82,-16432
122497,-1094,89,-16429
122501,-1096,82,-16421
122505,-1100,72,-16418
122509,-1106,76,-16438
122513,-1088,68,-16421
122517,-1106,75,-16424
122521,-1086,75,-16441
122526,-1085,86,-16428
122530,-1095,86,-16430
122534,-1106,84,-16431
122538,-1088,71,-16438
122542,-1073,79,-16434
122546,-1072,83,-16448
122550,-1088,89,-16449
122554,-1080,79,-16444
122558,-1087,67,-16441
122562,-1088,82,-16439
122567,-1083,94,-16451
122571,-1114,82,-16442
122575,-1107,89,-16426
122579,-1096,90,-16423
122583,-1105,89,-16441
122587,-1085,87,-16435
122591,-1078,89,-16432
122595,-1095,63,-16438
122599,-1083,91,-16443
122603,-1104,69,-16440
122608,-1102,57,-16431
122612,-1087,70,-16427
122616,-1091,80,-16436
122620,-1080,78,-16442
122624,-1081,80,-16450
122628,-1083,70,-16408
122632,-1096,78,-16432
122636,-1093,67,-16449
122640,-1083,58,-16449
122645,-1086,80,-16449
122649,-1081,80,-16415
122653,-1092,86,-16421
122657,-1099,91,-16435
122661,-1096,89,-16429
122665,-1079,75,-16424
122669,-1100,88,-16433
122673,-1095,72,-16434
122677,-1104,58,-16453
122681,-1090,77,-16448
122685,-1079,97,-16429
122690,-1093,90,-16440
122694,-1083,84,-16423
122698,-1089,82,-16424
122702,-1083,84,-16426
122706,-1063,77,-16435
122710,-1076,99,-16441
122714,-1093,102,-16449
122718,-1094,70,-16441
122722,-1097,81,-16443
122727,-1087,72,-16457
122731,-1099,82,-16446
122735,-1110,81,-16428
122739,-1086,71,-16428
122743,-1079,87,-16432
122747,-1083,91,-16419
122751,-1091,79,-16434
122755,-1101,77,-16449
122759,-1108,72,-16432
122763,-1093,83,-16432
122768,-1085,69,-16428
122772,-1089,75,-16439
122776,-1090,70,-16434
122780,-1117,82,-16431
122784,-1094,89,-16422
122788,-1083,91,-16451
122792,-1097,66,-16440
122796,-1099,66,-16424
122800,-1081,73,-16420
122805,-1079,71,-16431
122809,-1079,81,-16439
122813,-1096,76,-16438
122817,-1103,87,-16429
122821,-1091,83,-16441
122825,-1091,98,-16428
122829,-1089,72,-16412
122833,-1078,77,-16444
122837,-1101,83,-16435
122841,-1105,85,-16434
122846,-1089,60,-16404
122850,-1089,85,-16418
122854,-1098,71,-16425
122858,-1103,85,-16427
122862,-1086,74,-16438
122866,-1081,85,-16435
122870,-1093,79,-16430
122874,-1094,76,-16428
122878,-1094,90,-16420
122882,-1090,68,-16437
122887,-1077,81,-16437
122891,-1098,85,-16423
122895,-1107,75,-16438
122899,-1067,81,-16430
122903,-1085,74,-16418
122907,-1089,60,-16434
122911,-1085,62,-16418
122915,-1096,73,-16425
122919,-1104,95,-16440
122923,-1078,90,-16452
122927,-1086,75,-16443
122931,-1103,67,-16428
122936,-1076,71,-16431
122940,-1088,86,-16440
122944,-1085,75,-16434
122948,-1102,81,-16447
122952,-1093,80,-16440
122956,-1099,76,-16433
122960,-1093,76,-16416
122964,-1086,86,-16425
122968,-1093,78,-16429
122972,-1092,74,-16441
122976,-1100,70,-16427
122981,-1096,81,-16422
122985,-1099,80,-16438
122989,-1105,102,-16450
122993,-1101,86,-16433
122997,-1080,85,-16436
123001,-1060,74,-16434
123005,-1085,75,-16434
123009,-1093,75,-16446
123013,-1095,75,-16409
123017,-1088,75,-16430
123022,-1092,86,-16443
123026,-1074,87,-16429
123030,-1101,80,-16440
123034,-1085,82,-16455
123038,-1079,83,-16440
123042,-1090,68,-16430
123046,-1077,67,-16434
123050,-1107,78,-16416
123054,-1099,74,-16423
123058,-1099,74,-16425
123063,-1100,60,-16433
123067,-1076,78,-16442
123071,-1082,69,-16437
123075,-1075,84,-16449
123079,-1084,75,-16422
123083,-1089,84,-16430
123087,-1082,78,-16438
123091,-1096,73,-16427
123095,-1102,71,-16408
123099,-1096,86,-16433
123104,-1093,83,-16443
123108,-1088,94,-16446
123112,-1098,72,-16429
123116,-1084,82,-16421
123120,-1095,66,-16417
123124,-1093,74,-16420
123128,-1081,73,-16451
123132,-1081,77,-16448
123136,-1103,77,-16414
123140,-1089,76,-16428
123145,-1102,82,-16431
123149,-1097,78,-16424
123153,-1103,70,-16418
123157,-1094,77,-16421
123161,-1078,64,-16430
123165,-1085,78,-16417
123169,-1075,69,-16424
123173,-1072,58,-16422
123177,-1092,82,-16431
123181,-1091,74,-16429
123185,-1096,81,-16443
123190,-1090,87,-16416
123194,-1103,86,-16420
123198,-1098,82,-16431
123202,-1083,83,-16404
123206,-1084,66,-16432
123210,-1092,79,-16446
123214,-1084,61,-16433
123218,-1086,90,-16421
123222,-1076,80,-16459
123226,-1087,77,-16434
123231,-1083,80,-16431
123235,-1091,80,-16454
123239,-1094,79,-16443
123243,-1080,72,-16442
123247,-1097,74,-16433
123251,-1098,74,-16440
123255,-1116,93,-16440
123259,-1103,77,-16420
123263,-1099,67,-16428
123267,-1093,76,-16427
123272,-1096,90,-16438
123276,-1101,76,-16444
123280,-1111,85,-16434
123284,-1086,78,-16434
123288,-1086,73,-16439
123292,-1083,70,-16448
123296,-1084,63,-16441
123300,-1096,86,-16431
123304,-1101,97,-16446
123308,-1086,85,-16437
123312,-1089,65,-16445
123317,-1080,76,-16444
123321,-1069,69,-16428
123325,-1094,80,-16439
123329,-1097,76,-16434
123333,-1069,61,-16433
123337,-1090,67,-16431
123341,-1109,82,-16453
123345,-1098,80,-16437
123349,-1106,66,-16427
123353,-1098,78,-16424
123358,-1095,83,-16434
123362,-1087,65,-16443
123366,-1095,84,-16434
123370,-1091,74,-16440
123374,-1073,77,-16437
123378,-1090,74,-16446
123382,-1105,70,-16443
123386,-1073,78,-16441
123390,-1077,94,-16439
123394,-1088,79,-16443
123399,-1075,95,-16448
123403,-1086,68,-16429
123407,-1119,77,-16426
123411,-1093,88,-16428
123415,-1086,83,-16461
123419,-1103,90,-16458
123423,-1090,78,-16448
123427,-1096,78,-16415
123431,-1074,65,-16423
123435,-1087,88,-16433
123439,-1099,69,-16446
123444,-1086,78,-16425
123448,-1085,92,-16438
123452,-1082,69,-16422
123456,-1084,88,-16423
123460,-1091,79,-16420
123464,-1088,80,-16444
123468,-1096,77,-16429
123472,-1081,72,-16442
123476,-1089,74,-16436
123481,-1082,83,-16447
123485,-1090,74,-16452
123489,-1069,82,-16438
123493,-1105,84,-16445
123497,-1106,71,-16448
123501,-1092,87,-16426
123505,-1095,93,-16431
123509,-1085,90,-16424
123513,-1077,86,-16424
123518,-1093,94,-16422
123522,-1089,85,-16432
123526,-1099,84,-16430
123530,-1095,69,-16443
123534,-1082,75,-16440
123538,-1079,75,-16448
123542,-1094,87,-16428
123546,-1085,69,-16427
123550,-1083,64,-16455
123554,-1098,70,-16445
123558,-1093,77,-16445
123563,-1092,83,-16430
123567,-1081,83,-16436
123571,-1093,77,-16413
123575,-1101,81,-16449
123579,-1094,77,-16431
123583,-1075,73,-16422
123587,-1089,68,-16424
123591,-1086,86,-16419
123595,-1095,83,-16438
123599,-1072,75,-16408
123603,-1081,64,-16436
123608,-1081,81,-16438
123612,-1066,81,-16434
123616,-1091,71,-16432
123620,-1097,62,-16426
123624,-1103,96,-16423
123628,-1095,91,-16436
123632,-1104,89,-16434
123636,-1095,72,-16416
123640,-1090,74,-16412
123644,-1079,71,-16422
123648,-1094,68,-16428
123653,-1087,68,-16459
123657,-1095,76,-16455
123661,-1080,73,-16454
123665,-1097,73,-16433
123669,-1109,76,-16452
123673,-1091,73,-16434
123677,-1073,95,-16439
123681,-1083,89,-16439
123685,-1082,72,-16413
123689,-1094,83,-16426
123694,-1096,70,-16430
123698,-1074,75,-16412
123702,-1082,93,-16428
123706,-1101,82,-16455
123710,-1103,80,-16439
123714,-1085,82,-16454
123718,-1085,75,-16432
123722,-1087,94,-16438
123726,-1091,64,-16439
123730,-1103,96,-16421
123734,-1088,81,-16411
123739,-1081,79,-16423
123743,-1076,81,-16433
123747,-1099,82,-16424
123751,-1106,69,-16420
123755,-1097,90,-16427
123759,-1093,87,-16430
123763,-1100,90,-16435
123767,-1103,82,-16424
123771,-1101,82,-16440
123775,-1113,78,-16436
123780,-1092,77,-16422
123784,-1068,94,-16428
123788,-1091,86,-16409
123792,-1078,81,-16436
123796,-1106,71,-16449
123800,-1092,82,-16444
123804,-1087,86,-16423
123808,-1065,90,-16443
123812,-1096,88,-16428
123816,-1086,76,-16436
123821,-1105,66,-16441
123825,-1099,74,-16438
123829,-1092,83,-16438
123833,-1100,71,-16430
123837,-1102,83,-16429
123841,-1098,69,-16441
123845,-1085,71,-16417
123849,-1086,85,-16423
123853,-1066,82,-16438
123858,-1074,86,-16437
123862,-1068,101,-16434
123866,-1082,78,-16443
123870,-1091,82,-16407
123874,-1083,74,-16414
123878,-1087,87,-16437
123882,-1093,87,-16442
123886,-1077,76,-16440
123890,-1079,67,-16434
123894,-1090,90,-16423
123899,-1085,74,-16422
123903,-1083,79,-16423
123907,-1096,91,-16424
123911,-1089,87,-16441
123915,-1084,78,-16426
123919,-1083,75,-16457
123923,-1091,91,-16437
123927,-1094,84,-16436
123931,-1096,89,-16437
123936,-1102,98,-16437
123940,-1104,88,-16441
123944,-1081,99,-16435
123948,-1090,92,-16447
123952,-1083,104,-16418
123956,-1099,105,-16433
123960,-1086,80,-16437
123964,-1086,83,-16447
123969,-1092,89,-16452
123973,-1075,74,-16447
123977,-1081,105,-16454
123981,-1095,94,-16431
123985,-1104,76,-16427
123989,-1105,84,-16433
123993,-1083,81,-16429
123997,-1084,82,-16436
124001,-1070,70,-16442
124005,-1091,73,-16428
124010,-1084,77,-16414
124014,-1084,69,-16452
124018,-1076,74,-16438
124022,-1092,82,-16419
124026,-1098,85,-16440
124030,-1092,88,-16448
124034,-1096,82,-16435
124038,-1105,69,-16451
124042,-1123,64,-16443
124046,-1078,89,-16455
124051,-1084,74,-16442
124055,-1086,79,-16441
124059,-1099,85,-16429
124063,-1087,75,-16451
124067,-1082,87,-16441
124071,-1119,81,-16444
124075,-1116,94,-16440
124079,-1104,98,-16411
124083,-1084,83,-16416
124087,-1102,104,-16422
124092,-1093,100,-16434
124096,-1081,91,-16436
124100,-1087,89,-16435
124104,-1087,73,-16446
124108,-1094,80,-16443
124112,-1094,96,-16437
124116,-1080,83,-16440
124120,-1069,86,-16435
124124,-1084,71,-16453
124128,-1106,79,-16421
124133,-1077,77,-16425
124137,-1063,86,-16446
124141,-1077,91,-16417
124145,-1095,90,-16425
124149,-1084,87,-16440
124153,-1097,84,-16432
124157,-1096,88,-16444
124161,-1083,93,-16437
124165,-1097,73,-16442
124170,-1078,88,-16427
124174,-1091,78,-16431
124178,-1088,100,-16436
124182,-1104,107,-16435
124186,-1106,69,-16424
124190,-1088,82,-16422
124194,-1069,92,-16451
124198,-1076,62,-16444
124202,-1078,79,-16430
124207,-1081,84,-16436
124211,-1083,75,-16424
124215,-1091,81,-16443
124219,-1096,81,-16449
124223,-1101,77,-16429
124227,-1099,75,-16433
124231,-1097,70,-16460
124235,-1092,82,-16433
124239,-1103,83,-16445
124243,-1086,90,-16452
124248,-1098,64,-16419
124252,-1090,68,-16432
124256,-1099,79,-16429
124260,-1095,69,-16428
124264,-1110,85,-16427
124268,-1113,75,-16419
124272,-1104,80,-16427
124276,-1104,75,-16435
124280,-1093,71,-16425
124284,-1104,81,-16428
124289,-1090,84,-16430
124293,-1096,79,-16433
124297,-1072,74,-16427
124301,-1094,62,-16454
124305,-1095,71,-16435
124309,-1079,71,-16421
124313,-1092,75,-16433
124317,-1082,88,-16433
124321,-1109,77,-16446
124325,-1087,78,-16445
124329,-1089,70,-16440
124334,-1093,84,-16432
124338,-1093,86,-16447
124342,-1096,78,-16437
124346,-1078,82,-16424
124350,-1090,57,-16423
124354,-1090,84,-16440
124358,-1095,78,-16420
124362,-1088,78,-16425
124366,-1101,76,-16443
124371,-1089,81,-16435
124375,-1083,90,-16433
124379,-1098,93,-16433
124383,-1108,95,-16439
124387,-1073,89,-16444
124391,-1084,87,-16418
124395,-1100,86,-16431
124399,-1104,90,-16436
124403,-1099,85,-16449
124407,-1100,69,-16428
124411,-1094,86,-16447
124416,-1091,84,-16455
124420,-1081,78,-16428
124424,-1086,87,-16444
124428,-1097,91,-16437
124432,-1097,78,-16431
124436,-1097,78,-16441
124440,-1083,90,-16449
124444,-1087,82,-16435
124448,-1069,69,-16436
124453,-1069,68,-16435
124457,-1074,77,-16456
124461,-1086,84,-16449
124465,-1096,76,-16430
124469,-1068,79,-16435
124473,-1107,90,-16441
124477,-1105,83,-16422
124481,-1103,78,-16423
124485,-1085,65,-16424
124489,-1073,60,-16439
124493,-1082,79,-16432
124498,-1097,81,-16435
124502,-1106,76,-16433
124506,-1110,83,-16440
124510,-1097,102,-16444
124514,-1094,83,-16430
124518,-1103,69,-16453
124522,-1086,97,-16441
124526,-1093,86,-16424
124530,-1101,82,-16449
124534,-1097,80,-16444
124539,-1090,76,-16433
124543,-1094,83,-16440
124547,-1085,90,-16428
124551,-1103,73,-16436
124555,-1108,80,-16435
124559,-1079,71,-16430
124563,-1066,67,-16454
124567,-1101,66,-16415
124571,-1096,79,-16424
124575,-1089,77,-16423
124579,-1101,66,-16434
124584,-1080,86,-16439
124588,-1070,78,-16448
124592,-1071,90,-16454
124596,-1090,73,-16443
124600,-1088,88,-16421
124604,-1065,84,-16434
124608,-1092,86,-16426
124612,-1092,66,-16441
124616,-1090,71,-16446
124620,-1099,86,-16447
124625,-1094,70,-16442
124629,-1109,74,-16413
124633,-1100,90,-16411
124637,-1098,70,-16413
124641,-1093,77,-16450
124645,-1097,76,-16442
124649,-1096,83,-16452
124653,-1098,98,-16437
124657,-1073,76,-16450
124661,-1095,66,-16442
124666,-1090,79,-16443
124670,-1083,94,-16444
124674,-1084,85,-16419
124678,-1087,78,-16428
124682,-1078,95,-16439
124686,-1081,86,-16439
124690,-1114,76,-16410
124694,-1104,88,-16413
124698,-1075,72,-16427
124702,-1104,65,-16436
124707,-1088,71,-16456
124711,-1102,75,-16428
124715,-1103,76,-16429
124719,-1094,78,-16429
124723,-1091,71,-16430
124727,-1108,75,-16439
124731,-1103,69,-16428
124735,-1078,61,-16441
124739,-1081,75,-16449
124743,-1093,73,-16433
124747,-1093,85,-16466
124752,-1084,96,-16459
124756,-1098,73,-16432
124760,-1086,66,-16434
124764,-1083,90,-16433
124768,-1088,90,-16406
124772,-1086,87,-16443
124776,-1083,63,-16438
124780,-1078,71,-16425
124784,-1108,82,-16446
124788,-1080,68,-16438
124793,-1076,75,-16429
124797,-1105,79,-16427
124801,-1091,67,-16431
124805,-1096,82,-16428
124809,-1101,85,-16433
124813,-1097,77,-16428
124817,-1084,99,-16429
124821,-1098,88,-16448
124825,-1112,85,-16443
124829,-1094,87,-16414
124834,-1065,78,-16433
124838,-1092,69,-16430
124842,-1110,92,-16434
124846,-1078,74,-16417
124850,-1084,82,-16430
124854,-1078,79,-16456
124858,-1074,74,-16441
124862,-1080,76,-16425
124866,-1100,66,-16431
124870,-1068,71,-16425
124875,-1095,75,-16433
124879,-1111,68,-16445
124883,-1101,92,-16421
124887,-1098,74,-16429
124891,-1103,76,-16420
124895,-1107,75,-16428
124899,-1088,89,-16428
124903,-1088,77,-16429
124907,-1090,78,-16433
124911,-1091,68,-16450
124916,-1089,81,-16437
124920,-1093,78,-16443
124924,-1098,75,-16438
124928,-1087,74,-16423
124932,-1106,74,-16428
124936,-1098,88,-16439
124940,-1088,64,-16442
124944,-1100,58,-16445
124948,-1094,80,-16459
124952,-1084,94,-16454
124957,-1090,96,-16428
124961,-1092,63,-16429
124965,-1084,76,-16440
124969,-1079,71,-16436
124973,-1084,64,-16441
124977,-1081,79,-16444
124981,-1087,84,-16448
124985,-1088,80,-16434
124989,-1082,88,-16420
124994,-1108,77,-16430
124998,-1080,71,-16447
125002,-1092,73,-16429
125006,-1086,68,-16420
125010,-1080,93,-16422
125014,-1084,82,-16443
125018,-1102,69,-16436
125022,-1104,74,-16420
125026,-1079,78,-16449
125030,-1098,88,-16437
125035,-1092,83,-16434
125039,-1083,84,-16429
125043,-1105,84,-16425
125047,-1100,75,-16422
125051,-1095,65,-16437
125055,-1081,80,-16420
125059,-1105,73,-16427
125063,-1077,70,-16412
125067,-1102,80,-16431
125071,-1098,75,-16426
125076,-1112,90,-16445
125080,-1085,98,-16440
125084,-1086,67,-16449
125088,-1089,78,-16446
125092,-1097,76,-16415
125096,-1080,66,-16436
125100,-1095,67,-16429
125104,-1084,84,-16429
125108,-1077,74,-16416
125112,-1089,67,-16422
125116,-1090,76,-16421
125121,-1102,71,-16429
125125,-1105,59,-16439
125129,-1088,80,-16429
125133,-1067,67,-16420
125137,-1090,71,-16425
125141,-1096,65,-16431
125145,-1081,75,-16426
125149,-1091,65,-16464
125153,-1091,68,-16436
125157,-1100,71,-16442
125162,-1086,80,-16442
125166,-1109,96,-16445
125170,-1093,88,-16430
125174,-1090,87,-16445
125178,-1087,81,-16437
125182,-1108,65,-16427
125186,-1087,67,-16421
125190,-1093,80,-16416
125194,-1102,81,-16424
125198,-1075,83,-16440
125203,-1087,81,-16431
125207,-1092,86,-16430
125211,-1085,78,-16446
125215,-1110,80,-16432
125219,-1101,85,-16421
125223,-1104,88,-16420
125227,-1088,76,-16426
125231,-1093,68,-16440
125235,-1083,69,-16438
125239,-1089,62,-16456
125243,-1088,82,-16452
125248,-1063,88,-16421
125252,-1093,75,-16420
125256,-1097,65,-16430
125260,-1094,71,-16426
125264,-1097,80,-16428
125268,-1099,68,-16437
125272,-1101,62,-16435
125276,-1097,90,-16428
125280,-1101,75,-16446
125285,-1078,79,-16449
125289,-1113,89,-16447
125293,-1107,75,-16438
125297,-1081,86,-16427
125301,-1094,80,-16412
125305,-1091,75,-16432
125309,-1106,90,-16438
125313,-1095,71,-16448
125317,-1094,92,-16427
125321,-1088,80,-16429
125326,-1094,84,-16426
125330,-1083,96,-16465
125334,-1076,98,-16443
125338,-1098,86,-16433
125342,-1080,63,-16446
125346,-1097,80,-16449
125350,-1092,81,-16450
125354,-1082,82,-16450
125358,-1103,85,-16430
125362,-1089,65,-16434
125367,-1101,87,-16429
125371,-1092,77,-16437
125375,-1074,88,-16444
125379,-1097,81,-16432
125383,-1074,74,-16451
125387,-1079,68,-16445
125391,-1079,77,-16426
125395,-1095,78,-16434
125399,-1108,95,-16441
125403,-1077,72,-16429
125408,-1101,71,-16440
125412,-1092,80,-16442
125416,-1074,67,-16420
125420,-1090,73,-16429
125424,-1097,91,-16435
125428,-1080,90,-16428
125432,-1093,84,-16457
125436,-1079,86,-16450
125440,-1080,105,-16442
125445,-1090,89,-16415
125449,-1094,73,-16418
125453,-1081,93,-16421
125457,-1101,86,-16439
125461,-1102,86,-16421
125465,-1075,81,-16443
125469,-1087,79,-16439
125473,-1080,79,-16431
125477,-1081,91,-16445
125481,-1081,87,-16443
125486,-1085,74,-16443
125490,-1102,92,-16431
125494,-1086,86,-16416
125498,-1089,99,-16432
125502,-1079,101,-16447
125506,-1102,83,-16440
125510,-1095,85,-16439
125514,-1084,89,-16433
125518,-1072,88,-16429
125522,-1091,100,-16419
125527,-1105,65,-16432
125531,-1091,66,-16444
125535,-1088,71,-16434
125539,-1082,75,-16430
125543,-1080,97,-16441
125547,-1077,74,-16429
125551,-1087,75,-16433
125555,-1103,79,-16411
125559,-1097,64,-16429
125563,-1110,57,-16443
125568,-1084,91,-16436
125572,-1081,68,-16435
125576,-1098,82,-16432
125580,-1087,73,-16445
125584,-1097,71,-16431
125588,-1082,85,-16456
125592,-1096,93,-16441
125596,-1104,73,-16416
125600,-1092,77,-16434
125605,-1080,76,-16436
125609,-1085,86,-16438
125613,-1089,76,-16428
125617,-1090,101,-16439
125621,-1090,80,-16431
125625,-1096,77,-16430
125629,-1085,87,-16432
125633,-1083,99,-16437
125637,-1095,94,-16425
125642,-1105,78,-16420
125646,-1110,74,-16421
125650,-1102,81,-16419
125654,-1107,89,-16429
125658,-1097,77,-16438
125662,-1098,84,-16447
125666,-1094,82,-16445
125670,-1075,79,-16436
125674,-1083,87,-16426
125678,-1092,69,-16425
125683,-1100,69,-16421
125687,-1094,79,-16414
125691,-1087,62,-16417
125695,-1089,69,-16417
125699,-1087,73,-16435
125703,-1099,69,-16421
125707,-1085,76,-16426
125711,-1088,76,-16437
125715,-1087,77,-16440
125719,-1079,80,-16425
125723,-1093,59,-16417
125728,-1101,77,-16422
125732,-1105,81,-16431
125736,-1097,80,-16436
125740,-1086,66,-16412
125744,-1091,66,-16409
125748,-1090,81,-16436
125752,-1089,77,-16443
125756,-1080,98,-16449
125760,-1085,90,-16432
125764,-1094,71,-16421
125769,-1108,81,-16429
125773,-1092,86,-16432
125777,-1082,87,-16432
125781,-1076,78,-16442
125785,-1096,76,-16434
125789,-1092,94,-16438
125793,-1089,84,-16452
125797,-1077,96,-16443
125801,-1087,84,-16427
125805,-1099,81,-16429
125810,-1075,68,-16436
125814,-1099,77,-16420
125818,-1084,81,-16436
125822,-1063,77,-16439
125826,-1108,83,-16452
125830,-1116,90,-16445
125834,-1082,78,-16428
125838,-1087,88,-16426
125842,-1078,98,-16422
125847,-1078,83,-16448
125851,-1101,85,-16436
125855,-1107,86,-16422
125859,-1091,71,-16433
125863,-1088,67,-16439
125867,-1083,66,-16442
125871,-1092,64,-16444
125875,-1082,75,-16431
125879,-1079,73,-16439
125883,-1086,76,-16427
125887,-1081,76,-16431
125892,-1096,88,-16428
125896,-1081,88,-16426
125900,-1077,87,-16434
125904,-1103,71,-16425
125908,-1105,85,-16432
125912,-1108,80,-16439
125916,-1087,82,-16424
125920,-1087,78,-16424
125924,-1101,103,-16419
125928,-1090,82,-16440
125933,-1101,92,-16444
125937,-1086,81,-16441
125941,-1088,70,-16456
125945,-1097,73,-16417
125949,-1087,73,-16422
125953,-1095,81,-16436
125957,-1098,69,-16436
125961,-1097,83,-16428
125965,-1099,73,-16426
125969,-1107,73,-16419
125974,-1094,79,-16415
125978,-1091,56,-16430
125982,-1093,72,-16416
125986,-1083,87,-16428
125990,-1096,92,-16438
125994,-1098,86,-16440
125998,-1093,86,-16431
126002,-1088,72,-16427
126006,-1076,83,-16434
126010,-1070,60,-16431
126015,-1096,47,-16439
126019,-1077,67,-16437
126023,-1084,76,-16436
126027,-1082,62,-16464
126031,-1110,58,-16448
126035,-1106,74,-16445
126039,-1073,77,-16450
126043,-1086,83,-16433
126047,-1088,100,-16428
126052,-1064,103,-16438
126056,-1098,77,-16437
126060,-1107,87,-16447
126064,-1100,90,-16431
126068,-1093,81,-16421
126072,-1088,85,-16424
126076,-1090,72,-16420
126080,-1108,57,-16431
126084,-1116,69,-16407
126088,-1122,59,-16451
126092,-1099,70,-16436
126097,-1095,76,-16447
126101,-1084,79,-16443
126105,-1101,77,-16432
126109,-1095,72,-16423
126113,-1085,65,-16423
126117,-1106,83,-16420
126121,-1103,86,-16431
126125,-1083,94,-16430
126129,-1083,80,-16441
126133,-1084,100,-16427
126138,-1085,97,-16441
126142,-1088,92,-16439
126146,-1086,91,-16416
126150,-1068,88,-16414
126154,-1089,83,-16443
126158,-1100,75,-16433
126162,-1092,72,-16421
126166,-1103,80,-16437
126171,-1096,63,-16438
126175,-1087,72,-16422
126179,-1095,83,-16432
126183,-1104,80,-16415
126187,-1088,79,-16425
126191,-1084,78,-16432
126195,-1084,78,-16461
126199,-1104,70,-16452
126203,-1092,67,-16444
126207,-1084,95,-16437
126212,-1073,98,-16433
126216,-1092,79,-16421
126220,-1082,81,-16423
126224,-1088,75,-16433
126228,-1094,96,-16433
126232,-1092,76,-16445
126236,-1090,71,-16427
126240,-1097,86,-16416
126244,-1101,78,-16426
126248,-1106,87,-16431
126252,-1109,77,-16422
126256,-1090,85,-16439
126261,-1103,78,-16462
126265,-1102,72,-16447
126269,-1105,84,-16430
126273,-1089,85,-16420
126277,-1099,79,-16411
126281,-1092,71,-16432
126285,-1088,73,-16435
126289,-1099,67,-16453
126293,-1098,81,-16439
126297,-1100,79,-16426
126302,-1074,87,-16438
126306,-1103,85,-16431
126310,-1076,75,-16431
126314,-1090,90,-16425
126318,-1086,71,-16431
126322,-1086,76,-16436
126326,-1089,86,-16440
126330,-1083,67,-16447
126334,-1099,70,-16423
126338,-1101,73,-16443
126343,-1101,74,-16432
126347,-1100,74,-16455
126351,-1099,53,-16451
126355,-1117,85,-16443
126359,-1102,73,-16427
126363,-1085,75,-16437
126367,-1081,84,-16431
126371,-1090,81,-16432
126375,-1091,86,-16418
126379,-1110,69,-16445
126383,-1101,78,-16442
126388,-1097,72,-16434
126392,-1084,84,-16440
126396,-1099,84,-16426
126400,-1098,74,-16418
126404,-1095,85,-16418
126408,-1082,84,-16433
126412,-1097,68,-16427
126416,-1073,87,-16433
126420,-1096,85,-16437
126424,-1104,89,-16436
126429,-1101,85,-16426
126433,-1098,86,-16422
126437,-1106,78,-16418
126441,-1106,61,-16436
126445,-1103,78,-16434
126449,-1100,82,-16437
126453,-1092,72,-16434
126457,-1094,79,-16425
126461,-1083,76,-16434
126466,-1097,77,-16438
126470,-1097,77,-16432
126474,-1093,65,-16436
126478,-1086,71,-16439
126482,-1072,79,-16431
126486,-1076,94,-16429
126490,-1090,91,-16433
126494,-1073,72,-16452
126498,-1089,78,-16424
126503,-1092,70,-16422
126507,-1078,73,-16432
126511,-1088,84,-16431
126515,-1099,90,-16421
126519,-1087,79,-16422
126523,-1091,73,-16432
126527,-1107,85,-16456
126531,-1115,74,-16456
126535,-1101,79,-16433
126539,-1106,64,-16438
126544,-1078,52,-16445
126548,-1089,74,-16454
126552,-1076,70,-16458
126556,-1101,65,-16442
126560,-1102,88,-16437
126564,-1079,87,-16438
126568,-1095,79,-16424
126572,-1086,72,-16445
126576,-1072,81,-16442
126580,-1102,63,-16447
126585,-1101,74,-16429
126589,-1092,81,-16421
126593,-1095,83,-16418
126597,-1087,84,-16418
126601,-1085,76,-16429
126605,-1086,82,-16455
126609,-1098,82,-16435
126613,-1100,72,-16433
126617,-1100,73,-16434
126622,-1094,81,-16418
126626,-1087,78,-16429
126630,-1100,83,-16429
126634,-1096,75,-16425
126638,-1091,83,-16395
126642,-1109,76,-16425
126646,-1103,95,-16437
126650,-1081,86,-16446
126654,-1097,94,-16439
126658,-1097,84,-16439
126662,-1081,100,-16421
126667,-1098,77,-16418
126671,-1093,59,-16441
126675,-1077,70,-16435
126679,-1096,89,-16457
126683,-1085,75,-16432
126687,-1084,74,-16420
126691,-1088,77,-16430
126695,-1085,80,-16441
126700,-1087,79,-16446
126704,-1105,79,-16439
126708,-1097,84,-16438
126712,-1074,88,-16427
126716,-1091,84,-16434
126720,-1100,88,-16406
126724,-1098,97,-16418
126728,-1087,75,-16438
126732,-1088,81,-16418
126736,-1096,89,-16435
126741,-1088,90,-16427
126745,-1085,69,-16420
126749,-1106,89,-16455
126753,-1090,78,-16452
126757,-1086,81,-16430
126761,-1079,88,-16452
126765,-1080,81,-16440
126769,-1082,79,-16438
126773,-1083,77,-16446
126777,-1092,99,-16446
126782,-1096,73,-16432
126786,-1095,65,-16446
126790,-1108,77,-16438
126794,-1102,76,-16423
126798,-1079,74,-16436
126802,-1078,85,-16435
126806,-1088,75,-16453
126810,-1100,68,-16431
126814,-1098,86,-16437
126818,-1099,70,-16441
126823,-1096,70,-16468
126827,-1095,63,-16454
126831,-1081,82,-16436
126835,-1092,94,-16423
126839,-1085,74,-16426
126843,-1089,92,-16435
126847,-1085,83,-16438
126851,-1103,87,-16432
126855,-1077,90,-16425
126859,-1090,90,-16436
126863,-1112,82,-16422
126868,-1099,105,-16433
126872,-1092,100,-16440
126876,-1078,97,-16439
126880,-1079,96,-16428
126884,-1108,82,-16432
126888,-1097,89,-16440
126892,-1091,104,-16434
126896,-1077,104,-16442
126901,-1081,88,-16431
126905,-1092,69,-16440
126909,-1088,81,-16445
126913,-1101,75,-16446
126917,-1104,87,-16441
126921,-1096,86,-16438
126925,-1100,67,-16426
126929,-1104,75,-16437
126933,-1086,91,-16427
126938,-1096,80,-16418
126942,-1101,79,-16432
126946,-1106,94,-16449
126950,-1087,73,-16435
126954,-1084,92,-16433
126958,-1087,88,-16440
126962,-1102,96,-16436
126966,-1096,90,-16431
126970,-1101,71,-16440
126974,-1096,77,-16436
126978,-1102,81,-16438
126983,-1084,77,-16442
126987,-1071,72,-16444
126991,-1082,76,-16424
126995,-1094,77,-16437
126999,-1088,98,-16452
127003,-1088,92,-16449
127007,-1101,87,-16434
127011,-1106,92,-16434
127015,-1104,87,-16430
127019,-1092,81,-16422
127023,-1106,82,-16449
127028,-1107,85,-16435
127032,-1083,75,-16426
127036,-1073,84,-16452
127040,-1081,92,-16436
127044,-1097,91,-16440
127048,-1090,83,-16432
127052,-1096,95,-16455
127056,-1087,76,-16438
127060,-1093,75,-16445
127064,-1095,85,-16426
127069,-1069,78,-16417
127073,-1078,84,-16444
127077,-1106,102,-16421
127081,-1098,77,-16424
127085,-1103,80,-16434
127089,-1084,82,-16435
127093,-1097,98,-16451
127097,-1102,90,-16448
127102,-1098,87,-16439
127106,-1087,72,-16446
127110,-1080,78,-16430
127114,-1083,74,-16419
127118,-1080,69,-16420
127122,-1079,86,-16451
127126,-1098,87,-16419
127130,-1098,87,-16419
127134,-1089,96,-16416
127138,-1094,91,-16452
127143,-1076,71,-16434
127147,-1072,85,-16438
127151,-1076,87,-16434
127155,-1083,74,-16450
127159,-1096,80,-16427
127163,-1087,77,-16427
127167,-1099,91,-16421
127171,-1106,76,-16431
127175,-1091,75,-16421
127179,-1088,95,-16427
127183,-1109,80,-16446
127188,-1104,76,-16433
127192,-1082,74,-16419
127196,-1074,80,-16431
127200,-1086,89,-16429
127204,-1091,73,-16433
127208,-1107,87,-16441
127212,-1089,86,-16436
127216,-1070,111,-16435
127220,-1090,70,-16424
127225,-1101,63,-16424
127229,-1105,71,-16435
127233,-1092,76,-16434
127237,-1094,77,-16444
127241,-1106,78,-16453
127245,-1100,77,-16435
127249,-1085,81,-16435
127253,-1094,75,-16434
127257,-1097,85,-16447
127261,-1095,88,-16410
127266,-1077,86,-16411
127270,-1107,82,-16447
127274,-1100,84,-16440
127278,-1095,80,-16429
127282,-1099,63,-16436
127286,-1088,55,-16416
127290,-1094,73,-16413
127294,-1096,86,-16427
127298,-1092,84,-16441
127302,-1080,83,-16439
127307,-1084,88,-16440
127311,-1082,81,-16442
127315,-1087,66,-16438
127319,-1100,87,-16432
127323,-1083,93,-16428
127327,-1082,92,-16431
127331,-1087,75,-16426
127335,-1091,87,-16430
127339,-1100,81,-16412
127343,-1086,79,-16412
127347,-1109,93,-16418
127352,-1109,75,-16415
127356,-1084,79,-16432
127360,-1112,70,-16439
127364,-1099,93,-16438
127368,-1087,80,-16456
127372,-1101,90,-16440
127376,-1100,78,-16442
127380,-1074,66,-16435
127384,-1078,67,-16442
127388,-1092,86,-16419
127393,-1097,82,-16441
127397,-1092,69,-16443
127401,-1080,91,-16420
127405,-1097,94,-16414
127409,-1100,78,-16421
127413,-1093,85,-16419
127417,-1094,90,-16438
127421,-1089,75,-16421
127425,-1087,76,-16432
127429,-1101,76,-16435
127433,-1078,66,-16429
127437,-1078,102,-16448
127442,-1112,98,-16447
127446,-1084,94,-16455
127450,-1094,88,-16432
127454,-1092,92,-16433
127458,-1100,89,-16422
127462,-1103,74,-16442
127466,-1078,68,-16434
127470,-1098,94,-16425
127474,-1103,81,-16416
127479,-1087,70,-16458
127483,-1078,61,-16455
127487,-1094,78,-16443
127491,-1084,76,-16436
127495,-1059,80,-16435
127499,-1088,94,-16417
127503,-1097,85,-16453
127507,-1109,80,-16456
127511,-1112,67,-16442
127516,-1087,74,-16433
127520,-1090,77,-16441
127524,-1094,90,-16447
127528,-1090,98,-16422
127532,-1073,82,-16419
127536,-1065,92,-16418
127540,-1085,84,-16415
127544,-1082,72,-16432
127548,-1079,93,-16409
127552,-1088,86,-16418
127557,-1087,75,-16439
127561,-1084,80,-16435
127565,-1095,74,-16439
127569,-1073,81,-16439
127573,-1085,76,-16441
127577,-1096,67,-16427
127581,-1105,85,-16419
127585,-1096,103,-16433
127589,-1089,87,-16424
127594,-1100,75,-16424
127598,-1089,76,-16443
127602,-1099,76,-16446
127606,-1103,93,-16435
127610,-1085,85,-16428
127614,-1086,82,-16442
127618,-1094,93,-16439
127622,-1096,96,-16437
127626,-1091,101,-16440
127631,-1086,84,-16425
127635,-1089,88,-16408
127639,-1088,88,-16420
127643,-1094,83,-16424
127647,-1098,74,-16448
127651,-1091,85,-16445
127655,-1084,78,-16439
127659,-1058,80,-16424
127663,-1104,84,-16431
127667,-1087,88,-16424
127672,-1084,72,-16454
127676,-1090,82,-16417
127680,-1102,71,-16439
127684,-1095,79,-16427
127688,-1118,86,-16445
127692,-1077,80,-16430
127696,-1072,73,-16446
127700,-1083,76,-16430
127704,-1095,85,-16439
127708,-1091,71,-16429
127713,-1096,76,-16436
127717,-1094,88,-16447
127721,-1092,79,-16418
127725,-1103,83,-16419
127729,-1091,73,-16425
127733,-1096,86,-16427
127737,-1093,84,-16435
127741,-1075,85,-16436
127745,-1080,74,-16422
127749,-1077,91,-16433
127753,-1082,88,-16429
127758,-1082,71,-16453
127762,-1083,68,-16432
127766,-1091,83,-16438
127770,-1094,76,-16447
127774,-1085,82,-16447
127778,-1076,83,-16439
127782,-1075,82,-16443
127786,-1095,81,-16455
127790,-1095,82,-16444
127794,-1082,84,-16443
127799,-1088,92,-16422
127803,-1098,87,-16436
127807,-1101,79,-16444
127811,-1078,74,-16441
127815,-1098,76,-16435
127819,-1103,77,-16429
127823,-1104,74,-16424
127827,-1081,87,-16437
127831,-1100,99,-16446
127835,-1109,79,-16443
127839,-1113,90,-16450
127843,-1113,84,-16439
127848,-1090,81,-16416
127852,-1094,78,-16429
127856,-1107,80,-16445
127860,-1089,78,-16437
127864,-1086,80,-16454
127868,-1098,72,-16411
127872,-1097,78,-16408
127876,-1084,86,-16428
127880,-1098,84,-16434
127884,-1089,71,-16427
127888,-1082,82,-16428
127893,-1067,83,-16441
127897,-1089,80,-16450
127901,-1083,77,-16413
127905,-1091,88,-16438
127909,-1097,66,-16420
127913,-1107,95,-16414
127917,-1078,98,-16441
127921,-1091,73,-16442
127925,-1111,83,-16446
127929,-1097,68,-16417
127934,-1106,74,-16426
127938,-1099,70,-16453
127942,-1109,78,-16434
127946,-1096,80,-16424
127950,-1093,87,-16451
127954,-1097,73,-16457
127958,-1094,90,-16432
127962,-1088,86,-16421
127966,-1088,78,-16434
127970,-1089,68,-16436
127975,-1085,73,-16425
127979,-1088,80,-16453
127983,-1106,85,-16449
127987,-1091,71,-16428
127991,-1103,81,-16444
127995,-1109,85,-16437
127999,-1104,82,-16417
128003,-1106,81,-16449
128007,-1106,88,-16439
128011,-1101,88,-16428
128016,-1094,86,-16447
128020,-1080,73,-16442
128024,-1073,96,-16439
128028,-1084,92,-16440
128032,-1093,67,-16440
128036,-1089,72,-16435
128040,-1100,78,-16445
128044,-1091,72,-16433
128048,-1109,84,-16434
128053,-1098,85,-16420
128057,-1097,83,-16425
128061,-1099,84,-16441
128065,-1093,87,-16455
128069,-1087,90,-16440
128073,-1081,76,-16441
128077,-1086,83,-16423
128081,-1096,62,-16433
128085,-1092,69,-16447
128089,-1097,89,-16435
128093,-1101,88,-16423
128098,-1074,99,-16450
128102,-1081,80,-16437
128106,-1079,75,-16422
128110,-1083,73,-16430
128114,-1072,63,-16423
128118,-1078,77,-16443
128122,-1114,75,-16450
128126,-1075,93,-16453
128130,-1081,90,-16426
128134,-1081,91,-16433
128138,-1097,81,-16429
128142,-1075,88,-16429
128147,-1096,100,-16438
128151,-1091,79,-16439
128155,-1089,91,-16433
128159,-1092,76,-16433
128163,-1068,67,-16423
128167,-1079,78,-16454
128171,-1108,78,-16432
128175,-1089,91,-16429
128179,-1094,82,-16449
128183,-1088,78,-16434
128188,-1088,78,-16432
128192,-1091,71,-16433
128196,-1085,81,-16438
128200,-1068,81,-16445
128204,-1084,80,-16414
128208,-1098,93,-16427
128212,-1076,84,-16419
128216,-1095,87,-16406
128220,-1094,92,-16427
128224,-1080,90,-16420
128229,-1073,60,-16426
128233,-1106,61,-16444
128237,-1104,73,-16439
128241,-1083,71,-16442
128245,-1084,73,-16428
128249,-1096,82,-16430
128253,-1087,70,-16436
128257,-1104,79,-16440
128261,-1099,77,-16441
128265,-1099,92,-16429
128270,-1105,83,-16430
128274,-1123,85,-16432
128278,-1109,79,-16441
128282,-1098,98,-16434
128286,-1114,78,-16421
128290,-1079,94,-16438
128294,-1082,86,-16414
128298,-1087,74,-16433
128302,-1088,74,-16427
128307,-1094,68,-16427
128311,-1087,79,-16447
128315,-1109,82,-16433
128319,-1084,80,-16436
128323,-1082,82,-16430
128327,-1092,74,-16436
128331,-1110,80,-16431
128335,-1108,85,-16426
128339,-1100,86,-16430
128343,-1102,82,-16424
128348,-1090,70,-16437
128352,-1095,68,-16411
128356,-1095,77,-16439
128360,-1108,73,-16444
128364,-1081,60,-16434
128368,-1081,74,-16430
128372,-1086,81,-16430
128376,-1099,71,-16417
128380,-1086,90,-16441
128384,-1083,68,-16432
128389,-1104,74,-16431
128393,-1066,75,-16436
128397,-1082,84,-16435
128401,-1093,77,-16442
128405,-1084,89,-16447
128409,-1084,93,-16424
128413,-1093,78,-16443
128417,-1105,83,-16415
128421,-1103,71,-16437
128425,-1098,78,-16428
128430,-1100,66,-16441
128434,-1116,69,-16439
128438,-1095,79,-16436
128442,-1077,75,-16416
128446,-1079,80,-16417
128450,-1088,81,-16451
128454,-1088,55,-16438
128458,-1083,70,-16433
128462,-1100,79,-16454
128466,-1103,75,-16451
128471,-1092,95,-16435
128475,-1091,92,-16431
128479,-1075,96,-16433
128483,-1068,83,-16428
128487,-1080,86,-16442
128491,-1099,80,-16436
128495,-1104,82,-16446
128499,-1082,96,-16444
128503,-1081,68,-16450
128508,-1078,79,-16438
128512,-1100,86,-16427
128516,-1076,78,-16433
128520,-1085,81,-16429
128524,-1090,70,-16450
128528,-1097,80,-16441
128532,-1106,76,-16444
128536,-1080,70,-16429
128540,-1085,84,-16421
128544,-1086,71,-16433
128548,-1097,63,-16444
128553,-1099,89,-16443
128557,-1081,87,-16431
128561,-1093,78,-16445
128565,-1096,64,-16439
128569,-1085,69,-16429
128573,-1094,69,-16448
128577,-1090,79,-16454
128581,-1080,77,-16432
128585,-1096,81,-16433
128589,-1086,72,-16423
128593,-1100,86,-16428
128598,-1087,79,-16421
128602,-1087,65,-16416
128606,-1092,86,-16421
128610,-1091,79,-16433
128614,-1090,83,-16430
128618,-1097,72,-16433
128622,-1092,71,-16430
128626,-1102,64,-16451
128630,-1106,90,-16454
128634,-1104,98,-16428
128639,-1089,82,-16445
128643,-1100,80,-16419
128647,-1061,87,-16418
128651,-1076,89,-16411
128655,-1084,75,-16432
128659,-1073,65,-16435
128663,-1073,71,-16439
128667,-1094,85,-16411
128671,-1100,82,-16432
128675,-1096,78,-16438
128680,-1089,78,-16448
128684,-1079,74,-16428
128688,-1095,68,-16434
128692,-1096,85,-16440
128696,-1087,91,-16429
128700,-1090,88,-16441
128704,-1103,87,-16428
128708,-1079,83,-16422
128712,-1101,78,-16428
128716,-1084,71,-16428
128721,-1082,78,-16421
128725,-1071,83,-16424
128729,-1089,63,-16438
128733,-1088,81,-16435
128737,-1082,72,-16431
128741,-1084,85,-16415
128745,-1099,89,-16426
128749,-1085,69,-16423
128753,-1108,65,-16431
128757,-1100,76,-16437
128762,-1108,57,-16416
128766,-1101,74,-16424
128770,-1115,67,-16436
128774,-1124,74,-16424
128778,-1091,87,-16454
128782,-1096,70,-16448
128786,-1093,88,-16418
128790,-1080,71,-16444
128794,-1095,71,-16425
128798,-1082,58,-16428
128802,-1093,71,-16423
128807,-1094,74,-16426
128811,-1095,71,-16461
128815,-1092,77,-16439
128819,-1090,85,-16444
128823,-1080,92,-16428
128827,-1089,99,-16428
128831,-1085,85,-16436
128835,-1086,77,-16435
128839,-1081,68,-16427
128843,-1093,76,-16413
128848,-1080,64,-16420
128852,-1087,74,-16433
128856,-1096,76,-16442
128860,-1103,84,-16450
128864,-1103,83,-16433
128868,-1086,79,-16447
128872,-1085,81,-16432
128876,-1103,84,-16430
128880,-1084,69,-16424
128884,-1086,107,-16452
128889,-1089,96,-16433
128893,-1082,76,-16441
128897,-1088,64,-16437
128901,-1092,71,-16420
128905,-1089,70,-16420
128909,-1096,86,-16426
128913,-1086,69,-16425
128917,-1099,72,-16415
128921,-1101,82,-16442
128926,-1111,79,-16429
128930,-1096,81,-16459
128934,-1100,103,-16435
128938,-1094,98,-16433
128942,-1093,86,-16429
128946,-1091,71,-16438
128950,-1077,70,-16447
128954,-1097,103,-16458
128959,-1086,66,-16429
128963,-1096,62,-16428
128967,-1109,82,-16430
128971,-1107,88,-16446
128975,-1092,87,-16440
128979,-1114,88,-16429
128983,-1090,73,-16437
128987,-1096,62,-16442
128991,-1111,65,-16460
128995,-1104,91,-16437
129000,-1088,74,-16445
129004,-1090,69,-16441
129008,-1100,91,-16423
129012,-1086,75,-16427
129016,-1085,68,-16436
129020,-1100,77,-16428
129024,-1092,78,-16438
129028,-1084,72,-16424
129032,-1084,70,-16429
129036,-1094,74,-16437
129041,-1086,81,-16431
129045,-1090,79,-16421
129049,-1099,80,-16425
129053,-1102,94,-16432
129057,-1078,82,-16424
129061,-1100,97,-16430
129065,-1091,86,-16431
129069,-1095,73,-16446
129073,-1099,83,-16435
129077,-1083,91,-16436
129082,-1085,69,-16431
129086,-1104,81,-16447
129090,-1092,60,-16436
129094,-1100,99,-16430
129098,-1098,98,-16426
129102,-1094,80,-16430
129106,-1100,96,-16424
129110,-1092,79,-16423
129114,-1090,70,-16437
129118,-1085,84,-16435
129123,-1114,79,-16429
129127,-1104,71,-16454
129131,-1088,78,-16423
129135,-1096,84,-16434
129139,-1098,80,-16443
129143,-1098,90,-16432
129147,-1101,79,-16413
129151,-1096,76,-16423
129155,-1102,77,-16455
129159,-1091,83,-16434
129164,-1110,83,-16434
129168,-1087,88,-16413
129172,-1081,83,-16439
129176,-1097,72,-16439
129180,-1082,78,-16430
129184,-1087,79,-16436
129188,-1084,81,-16427
129192,-1096,78,-16429
129196,-1107,79,-16437
129200,-1097,74,-16412
129205,-1110,88,-16459
129209,-1081,89,-16455
129213,-1081,94,-16443
129217,-1095,85,-16441
129221,-1092,70,-16437
129225,-1094,78,-16428
129229,-1105,84,-16445
129233,-1100,77,-16445
129237,-1108,77,-16430
129241,-1069,86,-16429
129245,-1086,91,-16421
129250,-1097,78,-16422
129254,-1110,68,-16427
129258,-1118,85,-16421
129262,-1110,94,-16447
129266,-1081,76,-16426
129270,-1100,73,-16425
129274,-1106,88,-16441
129278,-1100,82,-16438
129282,-1073,78,-16463
129286,-1073,70,-16427
129291,-1085,62,-16454
129295,-1099,64,-16444
129299,-1097,87,-16449
129303,-1095,89,-16440
129307,-1090,70,-16440
129311,-1098,73,-16431
129315,-1102,79,-16434
129319,-1092,89,-16423
129323,-1099,70,-16428
129328,-1097,78,-16434
129332,-1102,79,-16431
129336,-1088,79,-16422
129340,-1095,85,-16437
129344,-1106,66,-16433
129348,-1106,93,-16434
129352,-1116,87,-16422
129356,-1093,88,-16414
129360,-1100,76,-16441
129364,-1082,70,-16427
129369,-1096,80,-16425
129373,-1093,67,-16443
129377,-1099,78,-16423
129381,-1092,82,-16432
129385,-1085,83,-16440
129389,-1080,66,-16424
129393,-1092,77,-16428
129397,-1098,77,-16447
129401,-1096,74,-16430
129405,-1099,54,-16436
129410,-1093,91,-16447
129414,-1083,83,-16438
129418,-1086,87,-16435
129422,-1108,86,-16448
129426,-1094,75,-16432
129430,-1103,77,-16413
129434,-1083,77,-16432
129438,-1089,72,-16424
129442,-1087,80,-16427
129446,-1077,80,-16421
129450,-1105,80,-16439
129454,-1101,96,-16439
129459,-1086,89,-16423
129463,-1088,71,-16432
129467,-1089,83,-16427
129471,-1085,93,-16441
129475,-1091,86,-16434
129479,-1104,83,-16443
129483,-1092,81,-16457
129487,-1092,82,-16441
129491,-1071,70,-16444
129496,-1077,85,-16420
129500,-1105,83,-16439
129504,-1096,79,-16432
129508,-1118,80,-16453
129512,-1112,85,-16427
129516,-1114,73,-16431
129520,-1095,75,-16435
129524,-1105,78,-16445
129528,-1099,90,-16433
129533,-1083,96,-16469
129537,-1091,94,-16441
129541,-1081,61,-16441
129545,-1092,74,-16423
129549,-1090,79,-16436
129553,-1092,70,-16440
129557,-1096,86,-16436
129561,-1099,83,-16431
129565,-1096,78,-16440
129569,-1095,73,-16450
129573,-1075,80,-16450
129578,-1083,72,-16432
129582,-1099,64,-16435
129586,-1094,81,-16444
129590,-1088,74,-16434
129594,-1092,79,-16444
129598,-1099,85,-16447
129602,-1096,97,-16421
129606,-1084,79,-16425
129610,-1073,78,-16438
129614,-1078,77,-16446
129619,-1099,84,-16440
129623,-1096,80,-16428
129627,-1109,76,-16433
129631,-1112,76,-16433
129635,-1100,81,-16439
129639,-1103,69,-16435
129643,-1085,80,-16435
129647,-1080,81,-16446
129651,-1089,77,-16423
129655,-1100,73,-16429
129660,-1109,81,-16428
129664,-1103,79,-16440
129668,-1108,81,-16416
129672,-1087,75,-16429
129676,-1093,83,-16430
129680,-1091,69,-16437
129684,-1090,100,-16440
129688,-1093,81,-16457
129692,-1093,78,-16442
129696,-1097,72,-16428
129701,-1074,88,-16394
129705,-1088,76,-16420
129709,-1075,73,-16422
129713,-1078,72,-16430
129717,-1090,84,-16424
129721,-1094,88,-16428
129725,-1093,76,-16438
129729,-1112,82,-16426
129733,-1084,61,-16430
129737,-1091,100,-16436
129742,-1109,94,-16428
129746,-1095,78,-16432
129750,-1085,56,-16427
129754,-1092,60,-16398
129758,-1103,91,-16421
129762,-1092,93,-16425
129766,-1088,92,-16444
129770,-1072,85,-16440
129775,-1078,92,-16435
129779,-1092,83,-16444
129783,-1079,102,-16454
129787,-1101,83,-16430
129791,-1108,88,-16437
129795,-1100,75,-16431
129799,-1107,84,-16433
129803,-1115,101,-16419
129807,-1069,76,-16434
129811,-1070,85,-16441
129816,-1095,79,-16423
129820,-1093,83,-16429
129824,-1097,53,-16436
129828,-1089,66,-16434
129832,-1083,75,-16422
129836,-1110,75,-16413
129840,-1101,75,-16450
129844,-1096,76,-16446
129848,-1109,88,-16437
129852,-1086,92,-16420
129856,-1094,63,-16423
129861,-1089,75,-16432
129865,-1094,82,-16443
129869,-1088,85,-16430
129873,-1108,81,-16443
129877,-1078,71,-16441
129881,-1096,71,-16439
129885,-1103,83,-16406
129889,-1085,79,-16410
129893,-1103,74,-16421
129897,-1089,59,-16433
129902,-1095,63,-16441
129906,-1120,83,-16430
129910,-1080,74,-16432
129914,-1077,77,-16436
129918,-1087,78,-16451
129922,-1103,75,-16446
129926,-1086,83,-16427
129930,-1095,95,-16441
129934,-1103,86,-16452
129939,-1104,96,-16436
129943,-1106,88,-16442
129947,-1079,76,-16437
129951,-1091,71,-16424
129955,-1101,74,-16437
129959,-1101,82,-16439
129963,-1108,82,-16444
129967,-1128,72,-16438
129971,-1104,92,-16418
129976,-1088,90,-16427
129980,-1077,77,-16428
129984,-1082,62,-16436
129988,-1090,73,-16453
129992,-1094,81,-16455
129996,-1092,69,-16448
130000,-1106,96,-16438
130004,-1099,82,-16432
130008,-1092,67,-16440
130012,-1085,66,-16428
130016,-1081,73,-16437
130021,-1096,65,-16433
130025,-1102,63,-16425
130029,-1108,88,-16436
130033,-1108,89,-16432
130037,-1095,97,-16428
130041,-1094,69,-16425
130045,-1082,74,-16443
130049,-1096,78,-16444
130053,-1076,85,-16450
130057,-1091,87,-16453
130062,-1082,87,-16457
130066,-1096,89,-16457
130070,-1099,83,-16445
130074,-1094,77,-16440
130078,-1079,76,-16435
130082,-1088,82,-16421
130086,-1087,74,-16425
130090,-1098,74,-16451
130094,-1085,74,-16449
130098,-1094,87,-16456
130103,-1098,71,-16435
130107,-1115,69,-16438
130111,-1087,87,-16435
130115,-1089,78,-16432
130119,-1083,76,-16428
130123,-1077,61,-16429
130127,-1059,96,-16430
130131,-1094,95,-16431
130135,-1089,89,-16435
130139,-1097,67,-16440
130144,-1078,67,-16428
130148,-1082,74,-16442
130152,-1092,72,-16437
130156,-1075,68,-16449
130160,-1102,75,-16439
130164,-1094,56,-16434
130168,-1070,65,-16423
130172,-1082,71,-16417
130176,-1077,85,-16433
130180,-1097,94,-16440
130184,-1128,90,-16447
130189,-1128,68,-16434
130193,-1097,90,-16448
130197,-1083,76,-16438
130201,-1092,84,-16425
130205,-1092,78,-16424
130209,-1100,74,-16432
130213,-1091,74,-16426
130217,-1092,76,-16428
130221,-1104,87,-16440
130225,-1105,67,-16435
130230,-1096,71,-16420
130234,-1089,72,-16445
130238,-1096,80,-16438
130242,-1081,78,-16438
130246,-1105,73,-16433
130250,-1091,78,-16434
130254,-1096,78,-16422
130258,-1083,88,-16446
130262,-1085,83,-16442
130266,-1086,75,-16441
130271,-1085,97,-16438
130275,-1092,64,-16425
130279,-1100,69,-16440
130283,-1103,53,-16450
130287,-1097,72,-16427
130291,-1090,72,-16423
130295,-1100,62,-16440
130299,-1102,65,-16430
130303,-1089,91,-16444
130307,-1082,79,-16434
130312,-1090,68,-16431
130316,-1094,64,-16445
130320,-1093,87,-16442
130324,-1086,74,-16438
130328,-1097,78,-16431
130332,-1115,72,-16438
130336,-1096,81,-16427
130340,-1085,78,-16423
130344,-1096,76,-16440
130348,-1110,73,-16419
130353,-1092,75,-16446
130357,-1097,72,-16434
130361,-1096,70,-16447
130365,-1098,74,-16422
130369,-1097,87,-16420
130373,-1100,80,-16448
130377,-1094,65,-16421
130381,-1079,82,-16419
130385,-1089,83,-16426
130389,-1082,90,-16435
130394,-1089,78,-16446
130398,-1096,76,-16419
130402,-1098,80,-16427
130406,-1076,83,-16437
130410,-1093,67,-16413
130414,-1094,73,-16430
130418,-1096,69,-16423
130422,-1103,71,-16427
130426,-1092,71,-16430
130430,-1112,70,-16435
130435,-1107,66,-16423
130439,-1104,83,-16423
130443,-1092,81,-16446
130447,-1091,94,-16429
130451,-1094,79,-16433
130455,-1080,72,-16442
130459,-1110,74,-16435
130463,-1106,79,-16429
130467,-1095,84,-16436
130472,-1085,78,-16415
130476,-1099,72,-16410
130480,-1088,78,-16436
130484,-1099,66,-16434
130488,-1095,71,-16449
130492,-1113,76,-16442
130496,-1083,70,-16428
130500,-1108,72,-16433
130504,-1105,78,-16418
130508,-1088,74,-16431
130512,-1096,69,-16429
130517,-1089,77,-16424
130521,-1095,76,-16432
130525,-1086,92,-16418
130529,-1098,58,-16432
130533,-1100,62,-16435
130537,-1124,84,-16425
130541,-1100,65,-16427
130545,-1083,59,-16417
130549,-1110,82,-16421
130553,-1108,67,-16439
130558,-1090,80,-16443
130562,-1102,89,-16440
130566,-1094,70,-16427
130570,-1110,76,-16450
130574,-1097,93,-16444
130578,-1084,90,-16443
130582,-1086,71,-16416
130586,-1086,75,-16411
130590,-1081,89,-16420
130594,-1098,101,-16434
130599,-1092,87,-16426
130603,-1100,97,-16402
130607,-1101,93,-16437
130611,-1103,76,-16447
130615,-1106,70,-16423
130619,-1088,80,-16432
130623,-1081,77,-16452
130627,-1081,70,-16445
130631,-1098,65,-16419
130635,-1095,70,-16417
130640,-1090,82,-16429
130644,-1086,74,-16406
130648,-1112,85,-16410
130652,-1114,83,-16443
130656,-1095,93,-16432
130660,-1094,63,-16426
130664,-1076,60,-16431
130668,-1082,70,-16431
130672,-1090,75,-16422
130676,-1089,87,-16436
130681,-1090,80,-16431
130685,-1103,83,-16450
130689,-1088,78,-16429
130693,-1118,68,-16445
130697,-1080,92,-16442
130701,-1083,72,-16441
130705,-1091,62,-16433
130709,-1066,67,-16439
130713,-1077,78,-16437
130717,-1081,68,-16446
130722,-1092,86,-16428
130726,-1081,85,-16424
130730,-1099,82,-16425
130734,-1120,78,-16435
130738,-1095,79,-16434
130742,-1086,79,-16399
130746,-1077,66,-16412
130750,-1084,67,-16421
130754,-1083,64,-16430
130758,-1084,69,-16432
130763,-1094,78,-16454
130767,-1088,87,-16437
130771,-1085,89,-16432
130775,-1100,94,-16417
130779,-1097,77,-16423
130783,-1086,77,-16420
130787,-1093,75,-16432
130791,-1098,71,-16450
130795,-1099,81,-16445
130799,-1096,66,-16430
130804,-1097,66,-16438
130808,-1090,83,-16419
130812,-1105,72,-16414
130816,-1102,80,-16435
130820,-1104,78,-16450
130824,-1091,73,-16437
130828,-1118,75,-16433
130832,-1120,70,-16428
130836,-1085,76,-16444
130840,-1086,74,-16412
130844,-1088,81,-16429
130849,-1079,96,-16432
130853,-1084,63,-16437
130857,-1081,72,-16442
130861,-1083,82,-16439
130865,-1101,85,-16436
130869,-1100,95,-16437
130873,-1097,69,-16434
130877,-1079,88,-16452
130881,-1087,94,-16435
130885,-1078,82,-16439
130889,-1087,77,-16415
130894,-1093,90,-16416
130898,-1106,97,-16456
130902,-1104,80,-16460
130906,-1102,96,-16442
130910,-1091,91,-16441
130914,-1096,68,-16434
130918,-1089,87,-16424
130922,-1089,78,-16429
130926,-1083,79,-16433
130931,-1090,80,-16427
130935,-1100,70,-16428
130939,-1086,76,-16431
130943,-1090,86,-16440
130947,-1089,81,-16449
130951,-1100,74,-16436
130955,-1091,91,-16427
130959,-1097,91,-16415
130963,-1078,93,-16414
130968,-1090,73,-16436
130972,-1095,79,-16433
130976,-1096,84,-16436
130980,-1095,78,-16439
130984,-1085,74,-16443
130988,-1105,89,-16449
130992,-1098,75,-16428
130996,-1073,79,-16422
131000,-1104,79,-16426
131004,-1099,68,-16427
131008,-1101,73,-16440
131013,-1108,80,-16431
131017,-1105,75,-16416
131021,-1085,89,-16442
131025,-1090,58,-16418
131029,-1080,61,-16438
131033,-1079,72,-16423
131037,-1103,65,-16427
131041,-1083,77,-16439
131045,-1086,74,-16426
131049,-1099,77,-16433
131054,-1092,82,-16431
131058,-1090,81,-16423
131062,-1108,86,-16416
131066,-1092,82,-16439
131070,-1091,68,-16422
131074,-1101,76,-16422
131078,-1099,79,-16427
131082,-1106,77,-16425
131086,-1098,76,-16438
131090,-1107,74,-16430
131095,-1096,87,-16445
131099,-1111,74,-16439
131103,-1088,86,-16421
131107,-1097,87,-16445
131111,-1095,76,-16422
131115,-1085,70,-16420
131119,-1092,80,-16444
131123,-1093,81,-16439
131127,-1098,83,-16409
131131,-1083,76,-16432
131135,-1085,77,-16440
131140,-1091,60,-16443
131144,-1088,72,-16421
131148,-1098,84,-16430
131152,-1109,76,-16434
131156,-1110,78,-16443
131160,-1102,90,-16442
131164,-1087,88,-16440
131168,-1081,70,-16442
131172,-1095,79,-16438
131176,-1084,74,-16446
131181,-1107,78,-16428
131185,-1099,79,-16435
131189,-1089,71,-16424
131193,-1108,85,-16433
131197,-1105,69,-16432
131201,-1100,85,-16443
131205,-1114,71,-16433
131209,-1107,85,-16425
131213,-1092,98,-16431
131217,-1105,80,-16427
131222,-1104,92,-16426
131226,-1096,84,-16423
131230,-1095,90,-16418
131234,-1108,73,-16424
131238,-1089,80,-16456
131242,-1093,78,-16441
131246,-1104,80,-16427
131250,-1082,92,-16443
131254,-1092,64,-16448
131258,-1094,80,-16422
131263,-1090,66,-16436
131267,-1092,68,-16423
131271,-1105,67,-16432
131275,-1094,70,-16446
131279,-1093,87,-16454
131283,-1090,85,-16424
131287,-1107,82,-16428
131291,-1120,93,-16415
131295,-1107,82,-16425
131299,-1096,67,-16427
131303,-1098,71,-16430
131308,-1105,68,-16420
131312,-1101,83,-16435
131316,-1078,73,-16426
131320,-1100,69,-16434
131324,-1079,72,-16413
131328,-1102,85,-16440
131332,-1108,75,-16429
131336,-1097,85,-16452
131340,-1102,73,-16435
131344,-1087,83,-16428
131349,-1087,80,-16435
131353,-1092,79,-16430
131357,-1104,65,-16442
131361,-1093,65,-16414
131365,-1092,82,-16437
131369,-1103,78,-16437
131373,-1104,81,-16413
131377,-1090,66,-16417
131381,-1092,86,-16439
131385,-1090,68,-16428
131390,-1103,72,-16429
131394,-1095,89,-16426
131398,-1076,89,-16415
131402,-1096,76,-16438
131406,-1116,74,-16436
131410,-1102,78,-16440
131414,-1079,89,-16454
131418,-1088,81,-16416
131423,-1097,80,-16448
131427,-1093,66,-16434
131431,-1096,105,-16433
131435,-1096,92,-16430
131439,-1072,82,-16436
131443,-1071,77,-16427
131447,-1082,70,-16434
131451,-1064,79,-16442
131455,-1077,76,-16432
131459,-1098,83,-16447
131464,-1089,68,-16423
131468,-1089,78,-16445
131472,-1100,80,-16430
131476,-1086,70,-16437
131480,-1086,94,-16448
131484,-1092,80,-16425
131488,-1104,72,-16447
131492,-1112,61,-16445
131496,-1081,68,-16444
131501,-1096,79,-16439
131505,-1102,89,-16446
131509,-1084,95,-16434
131513,-1076,90,-16429
131517,-1078,63,-16447
131521,-1092,71,-16447
131525,-1093,77,-16453
131529,-1088,79,-16449
131533,-1100,84,-16433
131537,-1091,80,-16430
131542,-1091,87,-16440
131546,-1079,74,-16458
131550,-1101,81,-16452
131554,-1104,77,-16434
131558,-1087,82,-16447
131562,-1101,73,-16441
131566,-1091,79,-16417
131570,-1109,84,-16432
131574,-1109,65,-16440
131579,-1107,77,-16442
131583,-1083,81,-16417
131587,-1106,80,-16429
131591,-1075,74,-16419
131595,-1086,70,-16434
131599,-1083,83,-16436
131603,-1092,86,-16422
131607,-1088,88,-16438
131611,-1099,70,-16430
131615,-1078,92,-16425
131619,-1085,86,-16420
131624,-1101,76,-16418
131628,-1104,74,-16430
131632,-1091,87,-16428
131636,-1088,76,-16432
131640,-1124,80,-16433
131644,-1088,84,-16424
131648,-1093,75,-16434
131652,-1104,86,-16439
131656,-1079,98,-16443
131660,-1076,87,-16425
131664,-1100,78,-16437
131669,-1109,72,-16419
131673,-1098,85,-16430
131677,-1092,82,-16426
131681,-1073,85,-16418
131685,-1078,73,-16438
131689,-1091,81,-16458
131693,-1103,84,-16431
131697,-1096,83,-16439
131701,-1083,76,-16437
131706,-1081,81,-16427
131710,-1086,81,-16431
131714,-1086,73,-16445
131718,-1103,73,-16436
131722,-1105,69,-16437
131726,-1093,90,-16419
131730,-1095,94,-16437
131734,-1081,80,-16449
131738,-1080,74,-16429
131743,-1069,68,-16424
131747,-1088,78,-16436
131751,-1082,83,-16434
131755,-1112,88,-16444
131759,-1087,86,-16440
131763,-1099,79,-16448
131767,-1095,70,-16444
131771,-1104,70,-16424
131775,-1085,70,-16429
131779,-1087,87,-16431
131783,-1101,81,-16438
131788,-1097,101,-16430
131792,-1099,92,-16451
131796,-1103,78,-16449
131800,-1088,74,-16451
131804,-1103,77,-16435
131808,-1089,81,-16437
131812,-1084,90,-16426
131816,-1099,77,-16429
131820,-1110,78,-16435
131824,-1083,80,-16443
131829,-1092,89,-16427
131833,-1087,95,-16442
131837,-1080,102,-16431
131841,-1096,81,-16439
131845,-1096,100,-16437
131849,-1092,101,-16443
131853,-1083,69,-16442
131858,-1086,82,-16423
131862,-1095,80,-16428
131866,-1090,78,-16418
131870,-1092,75,-16427
131874,-1100,72,-16444
131878,-1093,64,-16444
131882,-1093,80,-16439
131886,-1097,84,-16412
131890,-1108,84,-16416
131894,-1098,65,-16446
131899,-1085,73,-16434
131903,-1093,91,-16422
131907,-1091,75,-16431
131911,-1079,79,-16437
131915,-1087,77,-16444
131919,-1078,98,-16433
131923,-1079,80,-16436
131927,-1105,78,-16432
131931,-1092,89,-16444
131935,-1085,88,-16436
131939,-1089,84,-16431
131944,-1089,78,-16419
131948,-1085,79,-16435
131952,-1088,87,-16431
131956,-1097,92,-16437
131960,-1086,90,-16444
131964,-1088,75,-16439
131968,-1092,70,-16429
131972,-1081,84,-16433
131976,-1096,76,-16429
131980,-1103,66,-16423
131985,-1099,72,-16451
131989,-1095,99,-16447
131993,-1071,91,-16438
131997,-1110,75,-16442
132001,-1086,80,-16436
132005,-1094,81,-16421
132009,-1100,77,-16405
132013,-1094,78,-16411
132017,-1081,87,-16454
132021,-1090,82,-16435
132025,-1102,62,-16434
132030,-1088,80,-16428
132034,-1068,70,-16422
132038,-1068,85,-16425
132042,-1096,79,-16428
132046,-1091,80,-16438
132050,-1091,92,-16445
132054,-1084,78,-16447
132058,-1103,70,-16420
132062,-1104,85,-16426
132066,-1104,80,-16401
132071,-1094,93,-16427
132075,-1091,68,-16442
132079,-1121,99,-16433
132083,-1092,85,-16442
132087,-1090,81,-16420
132091,-1094,71,-16445
132095,-1084,85,-16438
132099,-1087,77,-16432
132103,-1096,87,-16426
132107,-1097,90,-16444
132112,-1087,67,-16446
132116,-1091,83,-16427
132120,-1075,76,-16433
132124,-1085,85,-16431
132128,-1096,74,-16425
132132,-1089,68,-16436
132136,-1101,59,-16418
132140,-1110,95,-16425
132144,-1098,96,-16434
132148,-1116,82,-16430
132153,-1074,84,-16450
132157,-1104,86,-16434
132161,-1086,85,-16436
132165,-1101,71,-16443
132169,-1103,83,-16435
132173,-1111,96,-16432
132177,-1092,103,-16447
132181,-1099,67,-16421
132185,-1101,63,-16424
132190,-1092,78,-16428
132194,-1104,83,-16413
132198,-1106,61,-16408
132202,-1085,66,-16430
132206,-1091,70,-16426
132210,-1077,83,-16426
132214,-1099,79,-16443
132218,-1073,69,-16425
132222,-1079,75,-16431
132226,-1083,70,-16442
132231,-1094,84,-16432
132235,-1104,107,-16438
132239,-1093,119,-16426
132243,-1103,81,-16454
132247,-1110,70,-16437
132251,-1092,86,-16423
132255,-1082,81,-16430
132259,-1087,75,-16442
132263,-1100,66,-16437
132268,-1093,75,-16428
132272,-1093,91,-16433
132276,-1085,81,-16439
132280,-1098,73,-16441
132284,-1123,60,-16439
132288,-1094,68,-16437
132292,-1113,77,-16419
132296,-1100,59,-16435
132300,-1095,83,-16427
132305,-1091,75,-16441
132309,-1091,88,-16434
132313,-1082,75,-16416
132317,-1082,73,-16445
132321,-1082,61,-16442
132325,-1107,64,-16435
132329,-1105,80,-16429
132333,-1093,74,-16425
132337,-1097,87,-16438
132342,-1100,80,-16437
132346,-1100,90,-16437
132350,-1091,90,-16428
132354,-1100,89,-16436
132358,-1091,75,-16416
132362,-1104,68,-16454
132366,-1108,109,-16468
132370,-1113,83,-16457
132374,-1097,75,-16417
132379,-1100,86,-16424
132383,-1095,71,-16438
132387,-1111,76,-16418
132391,-1087,74,-16422
132395,-1091,78,-16424
132399,-1089,92,-16427
132403,-1093,72,-16419
132407,-1081,79,-16441
132411,-1092,76,-16444
132415,-1080,70,-16409
132420,-1083,94,-16414
132424,-1080,95,-16444
132428,-1106,71,-16440
132432,-1102,88,-16427
132436,-1104,74,-16451
132440,-1094,65,-16447
132444,-1090,78,-16443
132448,-1095,73,-16433
132452,-1107,91,-16419
132456,-1109,83,-16437
132461,-1081,83,-16423
132465,-1080,89,-16433
132469,-1096,77,-16416
132473,-1087,72,-16435
132477,-1084,88,-16426
132481,-1072,84,-16429
132485,-1090,74,-16418
132489,-1086,69,-16424
132493,-1095,60,-16437
132497,-1091,55,-16437
132501,-1104,83,-16444
132506,-1094,97,-16442
132510,-1104,93,-16435
132514,-1088,69,-16438
132518,-1077,76,-16435
132522,-1088,90,-16425
132526,-1095,77,-16422
132530,-1094,80,-16433
132534,-1087,81,-16449
132538,-1096,83,-16454
132543,-1099,69,-16435
132547,-1111,71,-16435
132551,-1087,75,-16435
132555,-1080,79,-16445
132559,-1105,86,-16414
132563,-1111,67,-16416
132567,-1100,76,-16432
132571,-1098,77,-16428
132575,-1109,78,-16426
132579,-1095,83,-16428
132583,-1086,83,-16437
132588,-1095,76,-16428
132592,-1086,80,-16417
132596,-1093,88,-16428
132600,-1090,92,-16425
132604,-1081,79,-16437
132608,-1084,74,-16422
132612,-1090,78,-16421
132616,-1087,77,-16422
132620,-1099,79,-16419
132624,-1101,90,-16438
132628,-1111,82,-16442
132633,-1100,81,-16412
132637,-1114,69,-16424
132641,-1090,85,-16430
132645,-1103,80,-16446
132649,-1095,56,-16437
132653,-1073,64,-16428
132657,-1081,76,-16434
132661,-1069,75,-16444
132665,-1082,92,-16427
132669,-1108,94,-16438
132674,-1095,70,-16435
132678,-1090,84,-16442
132682,-1090,80,-16444
132686,-1088,61,-16434
132690,-1118,75,-16456
132694,-1100,87,-16437
132698,-1094,78,-16446
132702,-1074,90,-16428
132706,-1092,95,-16446
132711,-1104,78,-16449
132715,-1092,74,-16426
132719,-1086,76,-16432
132723,-1096,91,-16433
132727,-1111,87,-16427
132731,-1103,69,-16427
132735,-1097,85,-16428
132739,-1091,71,-16430
132743,-1091,83,-16409
132747,-1082,96,-16418
132752,-1084,89,-16411
132756,-1081,86,-16417
132760,-1085,90,-16435
132764,-1097,108,-16431
132768,-1087,85,-16433
132772,-1071,80,-16449
132776,-1079,85,-16444
132780,-1085,84,-16453
132784,-1088,60,-16445
132789,-1098,78,-16432
132793,-1104,88,-16431
132797,-1106,80,-16445
132801,-1082,93,-16446
132805,-1091,85,-16435
132809,-1088,82,-16453
132813,-1114,96,-16425
132817,-1102,76,-16426
132821,-1101,88,-16430
132825,-1087,90,-16438
132829,-1083,99,-16425
132834,-1088,74,-16421
132838,-1114,78,-16444
132842,-1093,73,-16442
132846,-1091,92,-16431
132850,-1093,106,-16434
132854,-1096,112,-16435
132858,-1076,83,-16431
132863,-1091,82,-16431
132867,-1082,96,-16432
132871,-1099,79,-16425
132875,-1102,75,-16426
132879,-1090,97,-16436
132883,-1075,80,-16439
132887,-1075,56,-16444
132891,-1077,83,-16440
132895,-1075,72,-16445
132899,-1112,72,-16437
132903,-1075,67,-16435
132908,-1087,66,-16444
132912,-1087,62,-16432
132916,-1094,91,-16427
132920,-1089,77,-16437
132924,-1088,78,-16439
132928,-1096,84,-16456
132932,-1085,73,-16439
132936,-1096,76,-16443
132940,-1101,93,-16438
132944,-1096,87,-16428
132948,-1082,74,-16452
132953,-1103,73,-16446
132957,-1094,87,-16429
132961,-1098,89,-16437
132965,-1090,59,-16431
132969,-1089,85,-16446
132973,-1094,84,-16442
132977,-1103,76,-16437
132981,-1111,65,-16433
132985,-1092,62,-16442
132989,-1095,91,-16425
132994,-1085,74,-16436
132998,-1101,69,-16428
133002,-1091,74,-16429
133006,-1103,85,-16433
133010,-1105,90,-16437
133014,-1076,84,-16421
133018,-1072,91,-16436
133022,-1095,73,-16442
133026,-1098,73,-16436
133030,-1105,70,-16434
133035,-1102,75,-16424
133039,-1108,70,-16419
133043,-1084,81,-16423
133047,-1093,75,-16430
133051,-1103,95,-16432
133055,-1087,72,-16437
133059,-1116,64,-16430
133063,-1103,79,-16418
133067,-1096,70,-16442
133071,-1114,80,-16415
133076,-1111,76,-16427
133080,-1110,66,-16420
133084,-1093,86,-16443
133088,-1100,80,-16453
133092,-1087,90,-16435
133096,-1100,83,-16462
133100,-1095,77,-16444
133104,-1098,81,-16424
133108,-1091,72,-16422
133112,-1078,81,-16434
133117,-1091,62,-16414
133121,-1081,76,-16449
133125,-1089,85,-16446
133129,-1096,74,-16428
133133,-1088,66,-16443
133137,-1095,67,-16431
133141,-1079,80,-16427
133145,-1092,77,-16439
133149,-1089,86,-16439
133153,-1111,92,-16438
133158,-1097,79,-16437
133162,-1096,67,-16433
133166,-1090,65,-16431
133170,-1080,83,-16427
133174,-1090,80,-16435
133178,-1106,79,-16437
133182,-1099,82,-16451
133186,-1100,77,-16426
133190,-1089,84,-16423
133194,-1102,74,-16428
133198,-1094,69,-16428
133203,-1106,68,-16424
133207,-1103,91,-16440
133211,-1106,87,-16435
133215,-1105,75,-16441
133219,-1089,63,-16428
133223,-1092,71,-16422
133227,-1091,74,-16426
133231,-1076,73,-16426
133235,-1082,69,-16407
133239,-1105,75,-16418
133243,-1101,91,-16421
133248,-1094,90,-16405
133252,-1081,100,-16421
133256,-1083,81,-16432
133260,-1077,71,-16436
133264,-1093,70,-16423
133268,-1088,91,-16436
133272,-1100,87,-16447
133276,-1075,90,-16445
133280,-1098,65,-16441
133285,-1090,90,-16421
133289,-1103,95,-16441
133293,-1082,69,-16438
133297,-1100,62,-16442
133301,-1103,69,-16441
133305,-1098,77,-16431
133309,-1105,77,-16435
133313,-1098,78,-16424
133317,-1095,83,-16421
133321,-1085,88,-16424
133326,-1090,93,-16432
133330,-1078,93,-16414
133334,-1090,78,-16460
133338,-1085,90,-16426
133342,-1107,78,-16425
133346,-1108,78,-16443
133350,-1080,87,-16435
133354,-1094,90,-16444
133358,-1095,74,-16416
133362,-1103,68,-16430
133366,-1109,83,-16435
133371,-1091,82,-16425
133375,-1101,80,-16444
133379,-1112,64,-16426
133383,-1096,75,-16439
133387,-1106,77,-16419
133391,-1100,65,-16428
133395,-1104,94,-16412
133399,-1101,110,-16427
133403,-1097,83,-16438
133407,-1102,87,-16436
133412,-1099,87,-16420
133416,-1098,92,-16432
133420,-1099,96,-16437
133424,-1098,94,-16436
133428,-1097,84,-16448
133432,-1088,76,-16418
133436,-1108,70,-16416
133440,-1104,88,-16426
133444,-1093,88,-16451
133448,-1104,66,-16438
133453,-1095,69,-16418
133457,-1094,82,-16427
133461,-1101,101,-16423
133465,-1100,77,-16427
133469,-1111,81,-16419
133473,-1104,73,-16433
133477,-1097,82,-16432
133481,-1085,83,-16424
133486,-1121,65,-16431
133490,-1109,87,-16407
133494,-1089,64,-16440
133498,-1083,66,-16426
133502,-1096,92,-16422
133506,-1094,91,-16430
133510,-1085,87,-16450
133514,-1089,85,-16447
133518,-1107,84,-16443
133522,-1114,73,-16438
133527,-1105,64,-16444
133531,-1086,69,-16429
133535,-1074,75,-16455
133539,-1073,83,-16444
133543,-1075,68,-16409
133547,-1077,92,-16424
133551,-1088,74,-16443
133555,-1081,67,-16414
133559,-1092,88,-16424
133563,-1097,88,-16444
133568,-1077,91,-16436
133572,-1097,92,-16422
133576,-1096,85,-16430
133580,-1092,83,-16431
133584,-1083,71,-16433
133588,-1084,81,-16444
133592,-1098,87,-16439
133596,-1089,83,-16442
133600,-1072,94,-16420
133604,-1108,87,-16450
133608,-1103,89,-16438
133612,-1095,83,-16433
133617,-1080,81,-16422
133621,-1102,83,-16434
133625,-1109,80,-16427
133629,-1101,66,-16443
133633,-1099,86,-16438
133637,-1104,72,-16439
133641,-1077,77,-16431
133645,-1073,83,-16436
133649,-1069,90,-16438
133654,-1082,96,-16423
133658,-1092,78,-16428
133662,-1098,81,-16441
133666,-1094,84,-16427
133670,-1090,87,-16439
133674,-1095,91,-16444
133678,-1094,91,-16433
133682,-1094,73,-16418
133686,-1094,81,-16428
133690,-1085,83,-16442
133694,-1112,97,-16451
133699,-1107,86,-16411
133703,-1094,78,-16421
133707,-1094,92,-16438
133711,-1088,75,-16430
133715,-1101,75,-16430
133719,-1115,70,-16438
133723,-1075,96,-16425
133727,-1110,90,-16462
133731,-1104,75,-16466
133735,-1088,64,-16435
133740,-1090,77,-16448
133744,-1098,75,-16438
133748,-1096,95,-16436
133752,-1088,94,-16458
133756,-1097,81,-16451
133760,-1081,71,-16417
133764,-1094,69,-16436
133768,-1099,88,-16434
133772,-1089,87,-16445
133776,-1107,92,-16420
133781,-1093,83,-16435
133785,-1093,86,-16441
133789,-1100,75,-16426
133793,-1096,78,-16442
133797,-1094,72,-16448
133801,-1095,90,-16436
133805,-1079,65,-16436
133809,-1091,79,-16422
133813,-1088,74,-16420
133817,-1099,77,-16409
133822,-1089,67,-16408
133826,-1089,65,-16420
133830,-1077,94,-16420
133834,-1095,82,-16444
133838,-1089,86,-16431
133842,-1112,79,-16436
133846,-1115,79,-16421
133850,-1094,74,-16432
133854,-1087,70,-16432
133858,-1097,78,-16433
133863,-1092,66,-16452
133867,-1104,69,-16452
133871,-1093,83,-16430
133875,-1099,70,-16430
133879,-1096,63,-16447
133883,-1072,71,-16444
133887,-1091,78,-16439
133891,-1086,85,-16425
133895,-1102,75,-16447
133899,-1096,66,-16438
133903,-1096,69,-16417
133908,-1088,73,-16426
133912,-1093,73,-16415
133916,-1097,78,-16416
133920,-1104,77,-16435
133924,-1089,89,-16438
133928,-1087,86,-16452
133932,-1087,78,-16450
133936,-1112,77,-16437
133940,-1097,84,-16420
133944,-1106,87,-16430
133949,-1078,80,-16426
133953,-1073,76,-16437
133957,-1092,76,-16436
133961,-1088,87,-16433
133965,-1090,66,-16424
133969,-1092,76,-16412
133973,-1088,63,-16421
133977,-1086,62,-16445
133981,-1112,78,-16440
133985,-1092,87,-16443
133990,-1090,85,-16449
133994,-1095,76,-16412
133998,-1092,79,-16414
134002,-1082,85,-16430
134006,-1105,72,-16437
134010,-1097,79,-16423
134014,-1082,83,-16421
134018,-1082,66,-16436
134022,-1078,82,-16434
134026,-1073,78,-16438
134031,-1095,66,-16427
134035,-1108,66,-16421
134039,-1094,75,-16446
134043,-1092,65,-16436
134047,-1084,73,-16423
134051,-1096,80,-16429
134055,-1085,82,-16435
134059,-1086,68,-16426
134063,-1082,69,-16422
134067,-1116,84,-16431
134071,-1114,91,-16441
134076,-1101,79,-16436
134080,-1090,51,-16439
134084,-1096,75,-16446
134088,-1084,81,-16434
134092,-1097,82,-16439
134096,-1099,83,-16431
134100,-1098,80,-16419
134104,-1095,91,-16433
134108,-1089,68,-16430
134112,-1098,69,-16433
134116,-1115,69,-16435
134121,-1110,94,-16432
134125,-1113,78,-16421
134129,-1087,59,-16424
134133,-1097,71,-16429
134137,-1095,59,-16448
134141,-1096,67,-16437
134145,-1101,63,-16442
134149,-1087,81,-16434
134153,-1088,87,-16418
134157,-1101,85,-16431
134161,-1090,79,-16441
134166,-1100,73,-16445
134170,-1089,77,-16435
134174,-1091,86,-16436
134178,-1103,81,-16450
134182,-1104,80,-16423
134186,-1093,85,-16446
134190,-1116,84,-16435
134194,-1109,88,-16419
134198,-1091,69,-16428
134202,-1087,76,-16437
134207,-1097,95,-16422
134211,-1083,97,-16446
134215,-1078,70,-16439
134219,-1074,67,-16422
134223,-1092,66,-16445
134227,-1094,77,-16423
134231,-1079,82,-16424
134235,-1081,98,-16428
134239,-1082,74,-16430
134243,-1109,87,-16431
134248,-1099,85,-16424
134252,-1091,92,-16441
134256,-1122,79,-16435
134260,-1115,79,-16445
134264,-1121,84,-16443
134268,-1081,81,-16433
134272,-1106,86,-16442
134276,-1101,98,-16434
134280,-1106,90,-16428
134284,-1102,96,-16445
134289,-1106,88,-16429
134293,-1096,79,-16417
134297,-1087,92,-16442
134301,-1091,80,-16451
134305,-1084,79,-16415
134309,-1090,84,-16427
134313,-1103,89,-16421
134317,-1091,95,-16438
134322,-1104,90,-16414
134326,-1117,82,-16436
134330,-1109,89,-16430
134334,-1110,89,-16428
134338,-1097,80,-16417
134342,-1083,83,-16437
134346,-1102,75,-16438
134350,-1099,86,-16437
134354,-1096,76,-16448
134358,-1077,70,-16432
134362,-1090,79,-16421
134367,-1094,75,-16424
134371,-1097,73,-16408
134375,-1093,97,-16408
134379,-1103,82,-16444
134383,-1091,83,-16451
134387,-1101,73,-16429
134391,-1093,72,-16426
134395,-1100,83,-16423
134399,-1089,81,-16450
134403,-1094,82,-16454
134408,-1090,80,-16445
134412,-1093,73,-16417
134416,-1095,85,-16427
134420,-1080,98,-16428
134424,-1072,93,-16413
134428,-1088,91,-16420
134432,-1094,57,-16418
134436,-1092,80,-16449
134440,-1109,99,-16429
134445,-1101,90,-16432
134449,-1093,85,-16439
134453,-1096,76,-16406
134457,-1087,101,-16401
134461,-1086,88,-16429
134465,-1108,81,-16424
134469,-1092,85,-16444
134473,-1110,74,-16445
134477,-1093,84,-16424
134482,-1094,86,-16436
134486,-1084,82,-16443
134490,-1083,84,-16418
134494,-1096,65,-16431
134498,-1098,72,-16431
134502,-1101,92,-16447
134506,-1090,84,-16450
134510,-1088,92,-16429
134514,-1089,84,-16431
134518,-1100,94,-16411
134522,-1089,80,-16442
134526,-1081,83,-16448
134531,-1083,79,-16445
134535,-1087,82,-16436
134539,-1083,91,-16429
134543,-1096,66,-16441
134547,-1080,52,-16426
134551,-1082,64,-16423
134555,-1073,86,-16428
134559,-1081,80,-16437
134563,-1119,76,-16394
134567,-1105,89,-16408
134572,-1079,66,-16459
134576,-1083,72,-16428
134580,-1099,78,-16431
134584,-1096,89,-16441
134588,-1100,94,-16434
134592,-1086,79,-16427
134596,-1109,73,-16440
134600,-1086,79,-16453
134604,-1093,88,-16450
134609,-1086,79,-16433
134613,-1089,67,-16438
134617,-1081,77,-16424
134621,-1087,75,-16433
134625,-1078,91,-16417
134629,-1086,75,-16435
134633,-1092,80,-16440
134637,-1072,80,-16436
134641,-1087,63,-16441
134645,-1081,81,-16415
134649,-1077,74,-16445
134654,-1089,78,-16432
134658,-1111,84,-16460
134662,-1102,87,-16422
134666,-1095,99,-16423
134670,-1091,102,-16438
134674,-1095,73,-16429
134678,-1102,74,-16431
134682,-1090,80,-16449
134686,-1106,76,-16436
134691,-1096,81,-16428
134695,-1067,69,-16424
134699,-1106,74,-16424
134703,-1089,77,-16427
134707,-1095,97,-16431
134711,-1105,95,-16446
134715,-1101,79,-16437
134719,-1098,81,-16432
134723,-1108,91,-16420
134728,-1089,80,-16425
134732,-1106,74,-16427
134736,-1105,64,-16429
134740,-1110,87,-16412
134744,-1098,73,-16423
134748,-1100,97,-16425
134752,-1094,89,-16457
134756,-1078,75,-16444
134760,-1078,80,-16448
134764,-1087,69,-16420
134768,-1094,68,-16424
134773,-1101,67,-16432
134777,-1091,98,-16438
134781,-1096,94,-16453
134785,-1092,65,-16443
134789,-1095,69,-16424
134793,-1096,77,-16413
134797,-1092,92,-16422
134801,-1104,77,-16443
134805,-1099,76,-16448
134809,-1105,84,-16444
134813,-1093,83,-16442
134817,-1088,71,-16433
134822,-1091,68,-16421
134826,-1108,72,-16450
134830,-1086,74,-16448
134834,-1077,75,-16444
134838,-1092,83,-16426
134842,-1091,63,-16444
134846,-1080,82,-16448
134850,-1108,81,-16448
134854,-1090,83,-16439
134858,-1080,85,-16424
134863,-1099,79,-16431
134867,-1094,68,-16423
134871,-1078,78,-16437
134875,-1078,75,-16422
134879,-1098,70,-16422
134883,-1105,84,-16430
134887,-1105,71,-16448
134891,-1096,86,-16441
134895,-1102,75,-16435
134899,-1090,76,-16441
134904,-1106,75,-16423
134908,-1096,91,-16417
134912,-1078,67,-16434
134916,-1100,62,-16428
134920,-1108,88,-16432
134924,-1101,70,-16427
134928,-1103,81,-16427
134932,-1107,65,-16434
134936,-1109,90,-16441
134940,-1111,82,-16436
134945,-1102,68,-16434
134949,-1097,79,-16437
134953,-1091,95,-16422
134957,-1083,66,-16413
134961,-1091,75,-16432
134965,-1112,74,-16435
134969,-1106,71,-16436
134973,-1103,62,-16418
134977,-1096,66,-16446
134981,-1100,64,-16454
134986,-1092,66,-16433
134990,-1094,68,-16434
134994,-1099,83,-16433
134998,-1084,90,-16426
135002,-1093,80,-16426
135006,-1098,72,-16418
135010,-1100,85,-16444
135014,-1098,75,-16453
135018,-1101,90,-16440
135022,-1093,77,-16436
135027,-1093,81,-16439
135031,-1093,81,-16421
135035,-1089,85,-16435
135039,-1094,64,-16434
135043,-1097,67,-16415
135047,-1084,80,-16429
135051,-1103,76,-16421
135055,-1093,78,-16425
135059,-1089,73,-16429
135063,-1103,86,-16439
135067,-1112,88,-16429
135072,-1103,84,-16439
135076,-1100,82,-16443
135080,-1109,76,-16436
135084,-1095,81,-16423
135088,-1086,86,-16439
135092,-1090,74,-16443
135096,-1104,76,-16437
135100,-1117,67,-16438
135104,-1106,77,-16420
135108,-1077,71,-16432
135113,-1088,81,-16425
135117,-1098,96,-16444
135121,-1090,101,-16438
135125,-1064,84,-16428
135129,-1078,89,-16426
135133,-1094,86,-16429
135137,-1099,86,-16439
135141,-1084,87,-16443
135145,-1098,91,-16441
135150,-1087,76,-16435
135154,-1096,78,-16426
135158,-1073,85,-16435
135162,-1096,83,-16427
135166,-1085,78,-16424
135170,-1092,84,-16445
135174,-1094,69,-16446
135178,-1103,73,-16431
135182,-1092,84,-16455
135187,-1099,86,-16441
135191,-1098,77,-16442
135195,-1080,79,-16454
135199,-1108,71,-16443
135203,-1098,86,-16430
135207,-1098,79,-16440
135211,-1099,71,-16435
135215,-1087,86,-16442
135219,-1108,90,-16432
135223,-1089,83,-16435
135228,-1085,71,-16445
135232,-1095,80,-16447
135236,-1090,68,-16436
135240,-1091,76,-16430
135244,-1091,73,-16412
135248,-1093,60,-16415
135252,-1083,72,-16438
135256,-1098,76,-16417
135260,-1089,73,-16433
135264,-1104,71,-16434
135268,-1093,70,-16432
135273,-1103,80,-16441
135277,-1094,69,-16431
135281,-1105,75,-16447
135285,-1095,65,-16440
135289,-1102,55,-16444
135293,-1075,68,-16439
135297,-1077,96,-16446
135301,-1089,82,-16442
135305,-1083,85,-16433
135309,-1073,80,-16432
135313,-1104,74,-16443
135318,-1091,78,-16443
135322,-1072,86,-16430
135326,-1079,71,-16431
135330,-1094,88,-16445
135334,-1119,85,-16443
135338,-1106,82,-16422
135342,-1093,84,-16421
135346,-1084,77,-16427
135350,-1080,58,-16445
135354,-1114,72,-16447
135358,-1122,102,-16429
135363,-1092,101,-16436
135367,-1090,90,-16456
135371,-1094,73,-16442
135375,-1095,82,-16418
135379,-1113,73,-16426
135383,-1096,80,-16423
135387,-1088,87,-16440
135392,-1108,77,-16455
135396,-1089,79,-16447
135400,-1105,61,-16420
135404,-1090,89,-16414
135408,-1086,82,-16450
135412,-1092,92,-16444
135416,-1092,87,-16448
135420,-1097,83,-16429
135424,-1101,78,-16449
135428,-1109,64,-16438
135433,-1090,74,-16429
135437,-1111,71,-16451
135441,-1076,61,-16446
135445,-1084,84,-16422
135449,-1094,95,-16429
135453,-1089,89,-16421
135457,-1077,82,-16434
135461,-1109,68,-16441
135465,-1095,65,-16447
135469,-1097,70,-16432
135474,-1100,67,-16450
135478,-1099,94,-16443
135482,-1081,94,-16422
135486,-1078,75,-16456
135490,-1070,78,-16455
135494,-1069,85,-16441
135498,-1092,70,-16447
135502,-1094,70,-16448
135506,-1096,81,-16418
135510,-1094,77,-16443
135515,-1078,101,-16455
135519,-1092,91,-16437
135523,-1090,80,-16442
135527,-1081,86,-16436
135531,-1080,69,-16429
135535,-1108,68,-16451
135539,-1087,85,-16446
135543,-1091,73,-16424
135547,-1094,78,-16435
135552,-1101,94,-16447
135556,-1104,79,-16425
135560,-1092,85,-16422
135564,-1092,74,-16425
135568,-1097,74,-16430
135572,-1096,65,-16449
135576,-1093,81,-16446
135580,-1085,77,-16441
135584,-1101,88,-16433
135588,-1093,67,-16433
135593,-1088,95,-16423
135597,-1097,98,-16426
135601,-1094,91,-16431
135605,-1091,82,-16453
135609,-1107,72,-16436
135613,-1084,72,-16425
135617,-1086,81,-16447
135621,-1089,77,-16423
135625,-1085,69,-16420
135629,-1093,79,-16428
135634,-1105,80,-16441
135638,-1100,79,-16442
135642,-1087,80,-16437
135646,-1087,78,-16442
135650,-1093,75,-16435
135654,-1086,83,-16432
135658,-1084,82,-16440
135662,-1088,68,-16443
135666,-1108,86,-16423
135670,-1091,77,-16458
135675,-1103,67,-16445
135679,-1086,85,-16432
135683,-1103,87,-16440
135687,-1104,77,-16426
135691,-1103,75,-16418
135695,-1094,70,-16420
135699,-1102,65,-16419
135703,-1104,86,-16434
135707,-1094,83,-16437
135711,-1086,80,-16431
135716,-1075,74,-16453
135720,-1092,70,-16448
135724,-1104,67,-16457
135728,-1091,80,-16430
135732,-1102,96,-16440
135736,-1086,78,-16445
135740,-1094,78,-16432
135744,-1108,97,-16441
135748,-1096,91,-16426
135752,-1082,83,-16427
135756,-1087,88,-16428
135761,-1095,89,-16438
135765,-1082,93,-16438
135769,-1107,86,-16439
135773,-1102,78,-16421
135777,-1094,79,-16416
135781,-1087,88,-16432
135785,-1089,75,-16444
135789,-1089,88,-16429
135793,-1092,82,-16434
135797,-1088,73,-16442
135802,-1097,77,-16421
135806,-1102,63,-16433
135810,-1098,78,-16423
135814,-1084,68,-16445
135818,-1087,84,-16432
135822,-1087,83,-16430
135826,-1091,70,-16446
135830,-1104,91,-16430
135834,-1099,88,-16435
135839,-1089,71,-16422
135843,-1096,78,-16430
135847,-1073,78,-16449
135851,-1096,72,-16453
135855,-1108,82,-16439
135859,-1099,84,-16437
135863,-1102,82,-16425
135867,-1106,81,-16426
135871,-1092,85,-16424
135875,-1074,88,-16445
135880,-1091,88,-16448
135884,-1102,80,-16460
135888,-1100,85,-16431
135892,-1095,85,-16423
135896,-1082,91,-16430
135900,-1090,95,-16441
135904,-1095,82,-16437
135908,-1098,50,-16443
135912,-1075,57,-16451
135916,-1118,87,-16447
135920,-1099,77,-16431
135925,-1093,86,-16443
135929,-1100,86,-16432
135933,-1078,70,-16431
135937,-1098,73,-16449
135941,-1086,80,-16434
135945,-1093,68,-16412
135949,-1101,66,-16439
135953,-1109,73,-16445
135957,-1099,87,-16431
135961,-1099,81,-16421
135966,-1098,68,-16443
135970,-1102,76,-16421
135974,-1085,92,-16439
135978,-1099,70,-16416
135982,-1108,80,-16423
135986,-1086,81,-16426
135990,-1102,75,-16424
135994,-1090,71,-16420
135998,-1082,82,-16435
136002,-1079,72,-16422
136007,-1085,76,-16435
136011,-1108,93,-16424
136015,-1086,77,-16431
136019,-1086,61,-16431
136023,-1108,78,-16423
136027,-1107,86,-16451
136031,-1081,94,-16438
136035,-1090,76,-16424
136039,-1099,89,-16419
136043,-1114,87,-16434
136047,-1097,78,-16435
136052,-1096,59,-16438
136056,-1106,85,-16434
136060,-1100,69,-16436
136064,-1099,92,-16453
136068,-1091,88,-16438
136072,-1085,88,-16432
136076,-1084,77,-16430
136080,-1108,68,-16430
136084,-1102,68,-16434
136088,-1103,88,-16441
136093,-1107,75,-16423
136097,-1115,65,-16432
136101,-1095,72,-16442
136105,-1077,85,-16435
136109,-1109,73,-16456
136113,-1107,93,-16442
136117,-1110,99,-16439
136121,-1097,73,-16432
136125,-1089,80,-16428
136129,-1096,91,-16436
136134,-1087,84,-16426
136138,-1082,82,-16430
136142,-1092,86,-16423
136146,-1090,84,-16433
136150,-1092,87,-16438
136154,-1109,89,-16420
136158,-1094,77,-16414
136162,-1097,71,-16429
136166,-1086,88,-16441
136170,-1077,85,-16433
136175,-1086,93,-16446
136179,-1099,98,-16427
136183,-1111,81,-16426
136187,-1101,80,-16428
136191,-1083,80,-16435
136195,-1091,83,-16447
136199,-1083,86,-16434
136203,-1088,82,-16439
136207,-1092,79,-16432
136211,-1081,87,-16432
136215,-1100,82,-16431
136219,-1102,85,-16425
136224,-1094,74,-16434
136228,-1094,87,-16429
136232,-1094,84,-16428
136236,-1103,67,-16432
136240,-1100,71,-16423
136244,-1094,86,-16420
136248,-1078,82,-16435
136252,-1089,73,-16418
136256,-1098,69,-16426
136261,-1108,97,-16441
136265,-1108,88,-16443
136269,-1104,99,-16453
136273,-1088,75,-16438
136277,-1076,77,-16421
136281,-1090,86,-16415
136285,-1080,85,-16440
136289,-1090,68,-16435
136293,-1097,88,-16442
136297,-1104,85,-16433
136302,-1089,76,-16438
136306,-1076,83,-16438
136310,-1091,85,-16431
136314,-1100,63,-16458
136318,-1102,86,-16440
136322,-1090,82,-16454
136326,-1081,88,-16430
136330,-1075,80,-16416
136334,-1103,84,-16419
136338,-1120,67,-16424
136343,-1108,87,-16416
136347,-1082,85,-16430
136351,-1097,80,-16439
136355,-1085,65,-16415
136359,-1081,71,-16433
136363,-1080,79,-16432
136367,-1087,74,-16429
136371,-1087,85,-16441
136375,-1083,77,-16429
136379,-1081,88,-16411
136383,-1079,91,-16429
136388,-1104,88,-16428
136392,-1099,85,-16437
136396,-1099,84,-16433
136400,-1083,95,-16440
136404,-1082,75,-16438
136408,-1088,81,-16444
136412,-1080,74,-16436
136416,-1084,64,-16424
136420,-1090,49,-16427
136424,-1104,100,-16437
136429,-1107,67,-16438
136433,-1094,82,-16444
136437,-1087,74,-16442
136441,-1086,56,-16427
136445,-1081,60,-16439
136449,-1085,78,-16441
136453,-1097,78,-16428
136457,-1102,65,-16436
136461,-1098,76,-16436
136466,-1096,86,-16431
136470,-1084,75,-16436
136474,-1097,78,-16433
136478,-1107,80,-16429
136482,-1071,71,-16425
136486,-1094,69,-16425
136490,-1098,80,-16430
136494,-1090,77,-16438
136498,-1099,74,-16446
136502,-1085,87,-16438
136507,-1101,72,-16433
136511,-1097,78,-16446
136515,-1097,72,-16437
136519,-1105,69,-16443
136523,-1108,66,-16423
136527,-1108,81,-16425
136531,-1106,74,-16428
136535,-1092,92,-16444
136539,-1110,79,-16419
136543,-1091,73,-16435
136547,-1089,88,-16434
136552,-1090,95,-16437
136556,-1087,86,-16422
136560,-1102,70,-16436
136564,-1075,51,-16437
136568,-1091,67,-16430
136572,-1096,67,-16429
136576,-1076,86,-16421
136580,-1094,64,-16420
136584,-1081,70,-16431
136589,-1104,72,-16422
136593,-1101,71,-16427
136597,-1095,74,-16445
136601,-1093,98,-16440
136605,-1085,101,-16439
136609,-1090,86,-16448
136613,-1090,69,-16445
136617,-1092,72,-16435
136621,-1084,67,-16453
136625,-1068,78,-16457
136630,-1080,87,-16444
136634,-1091,78,-16446
136638,-1100,75,-16430
136642,-1091,78,-16408
136646,-1074,84,-16423
136650,-1090,92,-16446
136654,-1091,75,-16436
136658,-1096,81,-16432
136662,-1079,83,-16435
136666,-1083,81,-16420
136670,-1094,82,-16426
136675,-1099,89,-16434
136679,-1105,80,-16425
136683,-1092,76,-16446
136687,-1075,76,-16414
136691,-1112,77,-16422
136695,-1114,77,-16434
136699,-1103,69,-16446
136703,-1096,74,-16444
136707,-1093,79,-16424
136711,-1090,88,-16434
136716,-1086,60,-16421
136720,-1086,87,-16439
136724,-1104,80,-16435
136728,-1099,63,-16449
136732,-1097,70,-16414
136736,-1087,60,-16417
136740,-1102,81,-16435
136744,-1091,85,-16431
136748,-1104,91,-16411
136752,-1089,84,-16426
136757,-1095,82,-16435
136761,-1099,98,-16442
136765,-1099,98,-16437
136769,-1109,90,-16437
136773,-1111,77,-16419
136777,-1099,79,-16425
136781,-1091,88,-16432
136785,-1098,79,-16420
136789,-1097,81,-16434
136793,-1086,80,-16426
136798,-1087,74,-16441
136802,-1096,70,-16439
136806,-1092,90,-16436
136810,-1090,87,-16444
136814,-1098,95,-16443
136818,-1078,93,-16425
136822,-1082,99,-16441
136826,-1094,64,-16456
136830,-1110,80,-16439
136834,-1080,85,-16420
136838,-1087,92,-16414
136843,-1086,80,-16416
136847,-1080,73,-16418
136851,-1081,75,-16430
136855,-1074,84,-16429
136859,-1084,66,-16403
136863,-1093,75,-16420
136867,-1077,86,-16442
136871,-1083,79,-16425
136875,-1097,79,-16421
136879,-1097,67,-16450
136884,-1101,71,-16433
136888,-1098,86,-16446
136892,-1088,83,-16444
136896,-1109,87,-16432
136900,-1099,83,-16427
136904,-1104,71,-16430
136908,-1089,85,-16422
136912,-1087,89,-16429
136916,-1087,63,-16436
136920,-1087,65,-16432
136925,-1095,93,-16434
136929,-1105,73,-16426
136933,-1085,84,-16437
136937,-1099,89,-16436
136941,-1071,78,-16411
136945,-1102,84,-16416
136949,-1089,65,-16433
136953,-1092,80,-16431
136957,-1085,72,-16433
136961,-1102,80,-16441
136966,-1074,82,-16437
136970,-1109,81,-16446
136974,-1112,77,-16448
136978,-1091,82,-16450
136982,-1089,95,-16445
136986,-1109,76,-16439
136990,-1094,83,-16420
136994,-1094,96,-16415
136998,-1077,91,-16444
137002,-1095,76,-16425
137006,-1080,79,-16422
137011,-1099,79,-16433
137015,-1098,90,-16423
137019,-1087,81,-16413
137023,-1064,78,-16434
137027,-1109,79,-16446
137031,-1112,81,-16443
137035,-1115,82,-16439
137039,-1101,85,-16432
137043,-1089,82,-16426
137048,-1082,95,-16439
137052,-1113,89,-16429
137056,-1106,87,-16425
137060,-1115,82,-16437
137064,-1091,81,-16426
137068,-1100,66,-16437
137072,-1107,82,-16447
137076,-1096,97,-16418
137080,-1086,99,-16428
137084,-1101,102,-16430
137089,-1102,95,-16432
137093,-1085,71,-16426
137097,-1087,75,-16430
137101,-1066,74,-16420
137105,-1078,94,-16422
137109,-1109,86,-16438
137113,-1108,76,-16432
137117,-1080,91,-16422
137121,-1082,86,-16428
137126,-1092,87,-16421
137130,-1090,76,-16426
137134,-1104,78,-16429
137138,-1092,69,-16419
137142,-1080,88,-16442
137146,-1096,87,-16430
137150,-1101,93,-16437
137154,-1097,91,-16429
137158,-1107,76,-16443
137162,-1096,81,-16424
137166,-1106,85,-16433
137171,-1101,85,-16419
137175,-1081,83,-16445
137179,-1098,88,-16446
137183,-1083,70,-16438
137187,-1118,83,-16422
137191,-1087,74,-16429
137195,-1095,75,-16426
137199,-1076,78,-16440
137203,-1078,81,-16434
137208,-1087,77,-16437
137212,-1097,85,-16442
137216,-1098,65,-16439
137220,-1088,84,-16434
137224,-1095,87,-16423
137228,-1087,82,-16436
137232,-1095,93,-16428
137236,-1093,90,-16437
137240,-1102,82,-16453
137244,-1118,77,-16461
137249,-1091,75,-16451
137253,-1095,61,-16431
137257,-1104,72,-16435
137261,-1082,67,-16422
137265,-1092,62,-16433
137269,-1086,87,-16450
137273,-1090,79,-16411
137277,-1099,81,-16415
137281,-1109,87,-16420
137286,-1084,82,-16435
137290,-1080,71,-16430
137294,-1096,85,-16426
137298,-1092,77,-16426
137302,-1092,87,-16420
137306,-1087,84,-16424
137310,-1103,88,-16416
137314,-1094,64,-16453
137318,-1096,70,-16444
137322,-1108,85,-16429
137326,-1101,83,-16453
137331,-1099,82,-16427
137335,-1101,86,-16430
137339,-1088,95,-16440
137343,-1097,79,-16429
137347,-1104,74,-16410
137351,-1107,83,-16419
137355,-1115,66,-16427
137359,-1100,91,-16435
137363,-1092,70,-16442
137367,-1095,88,-16456
137371,-1115,80,-16434
137376,-1108,72,-16417
137380,-1084,89,-16438
137384,-1089,73,-16428
137388,-1103,78,-16440
137392,-1082,79,-16411
137396,-1111,80,-16430
137400,-1100,86,-16429
137404,-1091,74,-16413
137408,-1091,91,-16422
137412,-1093,81,-16426
137417,-1090,77,-16424
137421,-1087,78,-16427
137425,-1080,64,-16429
137429,-1109,83,-16407
137433,-1079,70,-16408
137437,-1079,92,-16407
137441,-1076,84,-16443
137445,-1072,70,-16436
137449,-1109,72,-16436
137453,-1091,58,-16426
137457,-1090,73,-16412
137462,-1086,76,-16425
137466,-1094,65,-16433
137470,-1092,87,-16442
137474,-1102,69,-16430
137478,-1101,81,-16426
137482,-1099,64,-16431
137486,-1108,73,-16418
137490,-1092,74,-16423
137494,-1095,92,-16425
137499,-1090,76,-16443
137503,-1084,70,-16432
137507,-1092,90,-16437
137511,-1090,81,-16413
137515,-1090,89,-16434
137519,-1089,89,-16429
137523,-1078,85,-16419
137527,-1113,76,-16430
137531,-1107,75,-16457
137535,-1102,74,-16448
137540,-1125,95,-16426
137544,-1112,87,-16432
137548,-1095,92,-16434
137552,-1094,80,-16450
137556,-1095,78,-16431
137560,-1090,88,-16409
137564,-1105,72,-16418
137568,-1096,74,-16442
137572,-1105,84,-16438
137576,-1105,73,-16451
137581,-1096,87,-16444
137585,-1100,85,-16442
137589,-1104,89,-16442
137593,-1098,69,-16444
137597,-1089,73,-16436
137601,-1097,74,-16432
137605,-1091,86,-16405
137609,-1101,83,-16438
137613,-1079,83,-16435
137617,-1080,76,-16459
137622,-1092,74,-16419
137626,-1083,94,-16405
137630,-1096,78,-16415
137634,-1095,85,-16413
137638,-1117,93,-16414
137642,-1118,84,-16420
137646,-1107,84,-16419
137650,-1106,71,-16429
137654,-1097,85,-16448
137658,-1092,72,-16452
137663,-1082,74,-16447
137667,-1091,74,-16439
137671,-1113,70,-16448
137675,-1098,78,-16446
137679,-1094,83,-16417
137683,-1102,85,-16423
137687,-1105,87,-16435
137691,-1100,88,-16451
137695,-1090,72,-16418
137699,-1102,78,-16429
137703,-1109,74,-16428
137708,-1103,74,-16421
137712,-1106,69,-16435
137716,-1095,79,-16428
137720,-1093,90,-16420
137724,-1098,89,-16430
137728,-1096,95,-16441
137732,-1092,92,-16446
137736,-1098,79,-16445
137740,-1084,97,-16423
137744,-1087,76,-16445
137748,-1073,93,-16456
137753,-1092,85,-16435
137757,-1093,77,-16415
137761,-1091,83,-16429
137765,-1093,76,-16438
137769,-1082,91,-16432
137773,-1103,82,-16426
137777,-1092,86,-16439
137781,-1086,60,-16428
137785,-1093,74,-16417
137790,-1092,69,-16422
137794,-1106,72,-16425
137798,-1097,76,-16463
137802,-1072,89,-16438
137806,-1109,78,-16441
137810,-1105,92,-16429
137814,-1100,103,-16438
137818,-1091,68,-16422
137822,-1093,86,-16415
137826,-1101,93,-16444
137831,-1103,80,-16430
137835,-1098,86,-16433
137839,-1105,76,-16433
137843,-1097,65,-16434
137847,-1099,81,-16423
137851,-1083,90,-16419
137855,-1101,71,-16427
137859,-1109,74,-16455
137863,-1084,88,-16435
137867,-1076,71,-16437
137872,-1084,81,-16425
137876,-1095,80,-16429
137880,-1091,84,-16426
137884,-1080,72,-16425
137888,-1096,85,-16420
137892,-1100,103,-16425
137896,-1096,78,-16431
137900,-1103,75,-16425
137904,-1100,85,-16431
137908,-1100,93,-16416
137913,-1086,97,-16434
137917,-1113,81,-16451
137921,-1099,75,-16433
137925,-1087,80,-16441
137929,-1089,73,-16442
137933,-1088,69,-16455
137937,-1103,67,-16461
137941,-1087,66,-16444
137945,-1099,78,-16445
137950,-1110,76,-16442
137954,-1107,88,-16452
137958,-1107,79,-16435
137962,-1081,85,-16438
137966,-1091,65,-16438
137970,-1089,77,-16452
137974,-1087,83,-16413
137978,-1092,66,-16423
137982,-1098,75,-16437
137986,-1088,70,-16424
137990,-1108,75,-16429
137995,-1087,78,-16425
137999,-1116,76,-16431
138003,-1093,64,-16435
138007,-1077,74,-16434
138011,-1093,76,-16444
138015,-1087,96,-16419
138019,-1086,94,-16448
138023,-1100,103,-16414
138027,-1085,85,-16437
138031,-1076,82,-16430
138036,-1085,73,-16422
138040,-1098,77,-16430
138044,-1101,72,-16434
138048,-1114,75,-16422
138052,-1096,85,-16431
138056,-1110,65,-16429
138060,-1102,71,-16430
138064,-1095,91,-16419
138068,-1102,70,-16441
138073,-1097,70,-16427
138077,-1090,90,-16413
138081,-1096,90,-16395
138085,-1079,90,-16440
138089,-1091,100,-16446
138093,-1084,86,-16428
138097,-1085,84,-16418
138101,-1103,77,-16407
138105,-1084,76,-16429
138109,-1112,78,-16439
138114,-1109,68,-16447
138118,-1094,78,-16440
138122,-1085,73,-16437
138126,-1077,74,-16439
138130,-1096,95,-16431
138134,-1092,79,-16443
138138,-1104,72,-16425
138142,-1100,63,-16420
138146,-1089,67,-16430
138150,-1090,76,-16418
138154,-1081,81,-16440
138159,-1092,89,-16443
138163,-1100,67,-16431
138167,-1092,84,-16439
138171,-1087,80,-16436
138175,-1078,74,-16432
138179,-1091,83,-16433
138183,-1112,83,-16443
138187,-1103,93,-16425
138191,-1108,87,-16441
138195,-1097,82,-16431
138200,-1096,64,-16417
138204,-1109,69,-16428
138208,-1090,74,-16426
138212,-1092,84,-16453
138216,-1101,89,-16437
138220,-1085,83,-16452
138224,-1087,91,-16441
138228,-1102,95,-16436
138232,-1100,70,-16435
138236,-1099,71,-16437
138241,-1085,70,-16407
138245,-1093,97,-16423
138249,-1091,82,-16435
138253,-1088,88,-16433
138257,-1098,70,-16434
138261,-1089,73,-16440
138265,-1091,80,-16423
138269,-1087,79,-16421
138273,-1092,86,-16436
138277,-1095,78,-16422
138282,-1083,94,-16423
138286,-1091,89,-16431
138290,-1086,76,-16423
138294,-1082,89,-16431
138298,-1084,88,-16435
138302,-1090,93,-16443
138306,-1085,88,-16429
138310,-1086,72,-16450
138314,-1097,71,-16431
138318,-1091,62,-16413
138322,-1097,74,-16412
138327,-1079,87,-16433
138331,-1090,77,-16438
138335,-1097,81,-16443
138339,-1095,86,-16432
138343,-1096,90,-16427
138347,-1097,84,-16448
138351,-1074,79,-16437
138355,-1092,89,-16433
138359,-1096,86,-16421
138364,-1100,79,-16439
138368,-1096,72,-16428
138372,-1084,80,-16433
138376,-1100,85,-16442
138380,-1089,81,-16436
138384,-1097,70,-16423
138388,-1106,68,-16426
138392,-1100,73,-16422
138396,-1081,74,-16451
138400,-1097,64,-16416
138404,-1089,90,-16439
138409,-1109,72,-16430
138413,-1100,68,-16430
138417,-1109,84,-16420
138421,-1093,100,-16426
138425,-1104,101,-16445
138429,-1112,84,-16439
138433,-1102,92,-16433
138437,-1098,86,-16434
138442,-1101,77,-16440
138446,-1110,63,-16438
138450,-1082,76,-16453
138454,-1074,82,-16432
138458,-1099,73,-16429
138462,-1075,56,-16439
138466,-1079,77,-16433
138470,-1089,63,-16433
138474,-1108,74,-16451
138478,-1094,66,-16433
138482,-1087,69,-16428
138486,-1096,81,-16446
138491,-1105,87,-16444
138495,-1089,81,-16445
138499,-1081,87,-16443
138503,-1091,90,-16439
138507,-1085,99,-16402
138511,-1097,92,-16416
138515,-1093,88,-16430
138519,-1080,78,-16433
138523,-1082,91,-16424
138528,-1084,66,-16428
138532,-1089,52,-16424
138536,-1091,74,-16423
138540,-1081,73,-16416
138544,-1098,81,-16423
138548,-1085,73,-16427
138552,-1089,79,-16420
138556,-1080,94,-16425
138560,-1099,95,-16425
138565,-1107,79,-16446
138569,-1096,74,-16451
138573,-1098,96,-16464
138577,-1105,75,-16425
138581,-1092,75,-16420
138585,-1081,93,-16430
138589,-1098,85,-16431
138593,-1093,76,-16447
138597,-1107,70,-16427
138601,-1111,78,-16421
138605,-1096,82,-16467
138610,-1087,82,-16452
138614,-1099,72,-16443
138618,-1087,66,-16443
138622,-1107,79,-16444
138626,-1118,80,-16425
138630,-1116,87,-16439
138634,-1082,81,-16456
138638,-1082,89,-16411
138642,-1111,79,-16400
138646,-1079,75,-16427
138650,-1079,81,-16439
138655,-1101,68,-16424
138659,-1105,77,-16426
138663,-1089,81,-16436
138667,-1105,68,-16413
138671,-1097,76,-16413
138675,-1112,87,-16426
138679,-1110,83,-16424
138683,-1112,80,-16430
138687,-1101,89,-16439
138691,-1092,85,-16444
138696,-1098,71,-16432
138700,-1103,89,-16455
138704,-1108,91,-16432
138708,-1096,91,-16431
138712,-1097,46,-16430
138716,-1089,59,-16456
138720,-1090,82,-16446
138724,-1099,78,-16416
138728,-1105,73,-16426
138732,-1090,69,-16413
138737,-1115,90,-16416
138741,-1085,98,-16434
138745,-1091,71,-16434
138749,-1109,70,-16426
138753,-1093,67,-16423
138757,-1100,71,-16427
138761,-1099,69,-16416
138765,-1099,85,-16431
138769,-1094,91,-16431
138773,-1093,77,-16444
138778,-1078,72,-16434
138782,-1086,86,-16452
138786,-1107,81,-16446
138790,-1099,78,-16453
138794,-1094,84,-16423
138798,-1074,85,-16432
138802,-1107,77,-16439
138806,-1100,83,-16407
138810,-1094,91,-16437
138814,-1079,80,-16441
138818,-1092,93,-16444
138823,-1117,87,-16437
138827,-1087,85,-16421
138831,-1093,99,-16431
138835,-1092,107,-16452
138839,-1097,75,-16454
138843,-1097,75,-16438
138847,-1090,78,-16427
138851,-1097,77,-16421
138855,-1097,69,-16432
138860,-1091,79,-16443
138864,-1090,87,-16422
138868,-1083,84,-16437
138872,-1089,71,-16434
138876,-1103,69,-16436
138880,-1104,87,-16438
138884,-1113,84,-16430
138888,-1093,76,-16446
138892,-1092,69,-16437
138896,-1088,69,-16426
138900,-1086,85,-16417
138905,-1078,86,-16433
138909,-1083,86,-16421
138913,-1092,85,-16421
138917,-1089,95,-16415
138921,-1074,88,-16436
138925,-1092,70,-16441
138929,-1096,66,-16427
138933,-1090,80,-16433
138937,-1086,82,-16440
138941,-1102,73,-16444
138946,-1111,77,-16428
138950,-1109,72,-16447
138954,-1110,92,-16420
138958,-1082,73,-16437
138962,-1097,88,-16448
138966,-1094,86,-16435
138970,-1080,96,-16435
138974,-1089,106,-16428
138978,-1080,82,-16450
138983,-1097,68,-16433
138987,-1087,91,-16426
138991,-1094,53,-16440
138995,-1109,58,-16436
138999,-1090,83,-16429
139003,-1111,83,-16420
139007,-1078,83,-16441
139011,-1091,71,-16442
139015,-1104,64,-16443
139019,-1088,73,-16434
139024,-1106,92,-16448
139028,-1110,74,-16441
139032,-1105,68,-16440
139036,-1092,85,-16437
139040,-1089,69,-16416
139044,-1078,66,-16422
139048,-1077,74,-16421
139052,-1069,86,-16428
139056,-1095,77,-16436
139060,-1103,88,-16447
139065,-1076,71,-16433
139069,-1106,88,-16431
139073,-1084,83,-16418
139077,-1084,91,-16428
139081,-1080,86,-16432
139085,-1083,65,-16426
139089,-1093,86,-16429
139093,-1103,78,-16435
139097,-1118,99,-16440
139101,-1092,80,-16432
139106,-1097,71,-16451
139110,-1078,82,-16452
139114,-1091,77,-16425
139118,-1072,74,-16425
139122,-1087,74,-16442
139126,-1101,72,-16427
139130,-1099,81,-16425
139134,-1090,77,-16428
139138,-1103,98,-16427
139142,-1094,90,-16425
139146,-1100,80,-16433
139151,-1103,69,-16414
139155,-1089,80,-16416
139159,-1088,56,-16414
139163,-1097,64,-16417
139167,-1104,83,-16444
139171,-1092,93,-16447
139175,-1100,104,-16427
139179,-1104,81,-16430
139183,-1108,74,-16432
139188,-1092,88,-16441
139192,-1103,88,-16443
139196,-1095,74,-16432
139200,-1086,84,-16450
139204,-1086,75,-16428
139208,-1083,85,-16433
139212,-1086,80,-16442
139216,-1098,86,-16434
139220,-1110,81,-16420
139225,-1121,83,-16409
139229,-1094,85,-16410
139233,-1095,61,-16448
139237,-1086,61,-16434
139241,-1092,83,-16432
139245,-1099,63,-16456
139249,-1078,71,-16428
139253,-1101,87,-16444
139257,-1100,62,-16419
139261,-1085,66,-16423
139266,-1097,85,-16411
139270,-1104,91,-16419
139274,-1098,93,-16433
139278,-1081,89,-16422
139282,-1092,84,-16422
139286,-1111,82,-16435
139290,-1095,92,-16409
139294,-1103,88,-16440
139298,-1093,92,-16429
139302,-1089,84,-16429
139307,-1090,98,-16436
139311,-1078,84,-16436
139315,-1071,82,-16426
139319,-1080,78,-16437
139323,-1102,69,-16407
139327,-1092,75,-16416
139331,-1102,81,-16419
139335,-1089,75,-16439
139339,-1102,81,-16455
139343,-1098,82,-16437
139348,-1081,79,-16441
139352,-1097,79,-16425
139356,-1095,84,-16439
139360,-1094,72,-16431
139364,-1086,78,-16425
139368,-1105,82,-16407
139372,-1103,75,-16437
139376,-1085,73,-16454
139380,-1081,97,-16454
139384,-1109,90,-16432
139389,-1105,95,-16432
139393,-1112,88,-16437
139397,-1088,90,-16431
139401,-1088,82,-16431
139405,-1101,85,-16449
139409,-1086,73,-16423
139413,-1083,82,-16412
139417,-1101,56,-16428
139421,-1097,66,-16439
139425,-1096,77,-16436
139429,-1100,67,-16440
139434,-1065,69,-16434
139438,-1104,81,-16437
139442,-1103,94,-16437
139446,-1077,80,-16433
139450,-1100,81,-16432
139454,-1099,72,-16442
139458,-1102,66,-16425
139462,-1097,92,-16426
139466,-1091,69,-16445
139470,-1092,68,-16447
139475,-1101,85,-16467
139479,-1109,90,-16433
139483,-1103,92,-16428
139487,-1093,74,-16414
139491,-1087,86,-16426
139495,-1087,78,-16438
139499,-1101,82,-16437
139503,-1104,80,-16437
139507,-1084,80,-16426
139511,-1076,73,-16430
139516,-1097,88,-16450
139520,-1076,64,-16421
139524,-1082,87,-16422
139528,-1087,86,-16435
139532,-1102,76,-16427
139536,-1121,66,-16429
139540,-1099,72,-16440
139544,-1083,90,-16447
139548,-1084,92,-16428
139552,-1086,100,-16444
139557,-1098,72,-16441
139561,-1102,64,-16453
139565,-1090,79,-16436
139569,-1083,81,-16424
139573,-1087,72,-16421
139577,-1083,75,-16427
139581,-1079,80,-16429
139585,-1084,75,-16404
139589,-1102,79,-16432
139594,-1103,73,-16413
139598,-1096,85,-16422
139602,-1096,80,-16423
139606,-1102,71,-16434
139610,-1089,83,-16465
139614,-1085,80,-16433
139618,-1085,83,-16417
139622,-1103,74,-16420
139626,-1085,74,-16435
139630,-1098,74,-16439
139635,-1104,80,-16441
139639,-1109,82,-16439
139643,-1109,93,-16442
139647,-1103,94,-16430
139651,-1078,91,-16435
139655,-1089,84,-16443
139659,-1091,81,-16435
139663,-1096,74,-16440
139667,-1101,76,-16429
139671,-1096,90,-16455
139676,-1095,90,-16453
139680,-1102,85,-16452
139684,-1103,96,-16452
139688,-1101,70,-16431
139692,-1082,67,-16435
139696,-1089,75,-16448
139700,-1105,73,-16428
139704,-1097,86,-16428
139708,-1101,76,-16455
139712,-1085,69,-16419
139716,-1089,81,-16413
139721,-1088,84,-16424
139725,-1093,77,-16420
139729,-1077,85,-16432
139733,-1094,84,-16441
139737,-1105,93,-16441
139741,-1104,79,-16436
139745,-1098,81,-16430
139749,-1096,81,-16430
139753,-1093,90,-16443
139757,-1090,78,-16457
139762,-1104,88,-16444
139766,-1075,81,-16447
139770,-1085,71,-16427
139774,-1085,79,-16442
139778,-1099,77,-16450
139782,-1094,81,-16454
139786,-1099,95,-16440
139790,-1108,84,-16430
139794,-1101,73,-16440
139799,-1101,67,-16440
139803,-1111,76,-16431
139807,-1102,83,-16434
139811,-1086,87,-16426
139815,-1090,93,-16449
139819,-1098,80,-16438
139823,-1113,74,-16425
139827,-1105,74,-16431
139831,-1107,89,-16433
139835,-1093,85,-16439
139839,-1100,80,-16422
139844,-1096,84,-16449
139848,-1089,88,-16436
139852,-1084,86,-16435
139856,-1120,76,-16433
139860,-1086,80,-16419
139864,-1097,80,-16442
139868,-1096,81,-16433
139872,-1099,82,-16434
139876,-1085,77,-16435
139880,-1092,80,-16453
139884,-1110,85,-16426
139889,-1107,85,-16421
139893,-1101,88,-16436
139897,-1082,78,-16420
139901,-1100,78,-16464
139905,-1099,74,-16426
139909,-1099,95,-16435
139913,-1094,69,-16418
139917,-1098,69,-16437
139921,-1112,78,-16451
139925,-1103,74,-16439
139929,-1093,75,-16436
139934,-1091,73,-16418
139938,-1084,81,-16420
139942,-1094,89,-16439
139946,-1072,74,-16430
139950,-1080,87,-16432
139954,-1104,93,-16437
139958,-1089,76,-16437
139962,-1082,78,-16433
139966,-1077,70,-16420
139970,-1097,86,-16427
139975,-1096,80,-16436
139979,-1086,76,-16427
139983,-1087,87,-16425
139987,-1086,61,-16447
139991,-1076,67,-16437
139995,-1093,71,-16436
139999,-1106,88,-16428
140003,-1100,78,-16442
140007,-1100,94,-16422
140012,-1090,88,-16427
140016,-1103,71,-16433
140020,-1106,80,-16419
140024,-1091,78,-16449
140028,-1103,72,-16427
140032,-1096,82,-16426
140036,-1083,76,-16443
140040,-1080,80,-16453
140044,-1095,80,-16444
140048,-1094,72,-16436
140053,-1097,67,-16441
140057,-1117,69,-16436
140061,-1104,74,-16431
140065,-1094,83,-16423
140069,-1089,79,-16426
140073,-1081,109,-16427
140077,-1097,90,-16421
140081,-1091,90,-16428
140085,-1093,74,-16423
140089,-1117,55,-16419
140094,-1108,73,-16425
140098,-1095,85,-16440
140102,-1072,76,-16435
140106,-1093,80,-16428
140110,-1090,79,-16433
140114,-1096,88,-16440
140118,-1093,83,-16431
140122,-1111,80,-16421
140126,-1106,77,-16431
140130,-1099,68,-16429
140134,-1075,53,-16418
140139,-1108,53,-16434
140143,-1108,64,-16421
140147,-1094,86,-16431
140151,-1094,89,-16421
140155,-1098,76,-16440
140159,-1089,83,-16457
140163,-1081,93,-16441
140167,-1085,80,-16442
140171,-1110,73,-16438
140175,-1103,74,-16444
140180,-1101,75,-16455
140184,-1091,80,-16421
140188,-1097,84,-16443
140192,-1093,71,-16445
140196,-1081,84,-16442
140200,-1086,79,-16442
140204,-1074,82,-16431
140208,-1075,77,-16401
140212,-1110,95,-16424
140216,-1107,91,-16443
140221,-1096,76,-16429
140225,-1096,67,-16422
140229,-1083,79,-16432
140233,-1072,83,-16431
140237,-1096,75,-16436
140241,-1077,82,-16417
140245,-1081,77,-16439
140249,-1111,87,-16445
140253,-1102,78,-16434
140257,-1076,84,-16428
140262,-1082,82,-16423
140266,-1098,69,-16432
140270,-1085,79,-16419
